"Time (s)","Acceleration x (m/s^2)","Acceleration y (m/s^2)","Acceleration z (m/s^2)","Absolute acceleration (m/s^2)"
3.704250033E-3,5.281467133E0,2.537223816E-1,7.658524017E0,9.306517084E0
1.377925003E-2,4.819228363E0,4.971162415E-1,9.527238007E0,1.068832777E1
2.385525004E-2,4.354145508E0,1.068927155E0,1.050725006E1,1.142381251E1
3.393025004E-2,3.846700745E0,1.606010284E0,1.026744873E1,1.108137532E1
4.400625004E-2,3.505111084E0,2.163301392E0,9.368118896E0,1.023363710E1
5.408125004E-2,3.270399170E0,2.549049225E0,8.298892365E0,9.277110388E0
6.415625004E-2,2.998564453E0,2.642155609E0,7.657476196E0,8.637668478E0
7.423225004E-2,2.494263153E0,2.812950439E0,7.799530792E0,8.658332370E0
8.430725004E-2,2.418370972E0,2.881058807E0,8.327632599E0,9.137750418E0
9.438325005E-2,2.296224976E0,2.684068451E0,8.628806305E0,9.323795946E0
1.044582500E-1,2.196382599E0,2.384092255E0,9.007518768E0,9.573055247E0
1.145342501E-1,2.320324860E0,1.982477417E0,9.098379822E0,9.596595206E0
1.246092501E-1,2.370769958E0,1.739832001E0,8.932674408E0,9.404266992E0
1.346852500E-1,2.430495758E0,1.908231812E0,8.747958527E0,9.277684876E0
1.447602501E-1,2.397564240E0,2.167193298E0,8.309819641E0,8.916173145E0
1.548352501E-1,2.497406616E0,2.250869293E0,8.023465118E0,8.699393363E0
1.649112500E-1,2.694097595E0,2.221081238E0,8.423583069E0,9.118558846E0
1.749862500E-1,2.951711884E0,2.188149719E0,9.210047607E0,9.915925533E0
1.850622500E-1,3.055895233E0,2.151775360E0,9.751471710E0,1.044317162E1
1.951372500E-1,2.955454102E0,2.143243103E0,9.862840118E0,1.051683484E1
2.052122500E-1,2.688559113E0,2.196981354E0,9.739197235E0,1.033958606E1
2.152882500E-1,2.488275604E0,2.234702911E0,9.294472046E0,9.877885563E0
2.253632500E-1,2.443967743E0,2.288740540E0,8.838220825E0,9.451214681E0
2.354392500E-1,2.599344635E0,2.354902954E0,8.702303467E0,9.382550084E0
2.455142500E-1,2.927911377E0,2.346520386E0,8.832382965E0,9.596343668E0
2.555902500E-1,3.131338348E0,2.218835907E0,8.808582458E0,9.608310859E0
2.656652500E-1,3.056344299E0,1.992805939E0,8.549022217E0,9.295068415E0
2.757402500E-1,2.642604675E0,2.000739441E0,8.121660919E0,8.771983463E0
2.858162500E-1,2.548300781E0,2.226619720E0,8.179590454E0,8.851969964E0
2.958912500E-1,2.686164093E0,2.266287231E0,8.177943878E0,8.901140456E0
3.059672500E-1,2.515818329E0,2.304158478E0,7.850275269E0,8.559515754E0
3.160422500E-1,2.132166138E0,2.346370697E0,7.597001953E0,8.232012303E0
3.261182500E-1,1.816772003E0,2.280956726E0,7.236701202E0,7.802132298E0
3.361932500E-1,1.323847046E0,1.436562653E0,6.429878998E0,6.720091308E0
3.462682083E-1,9.611512756E-1,4.466711426E-1,5.544320526E0,5.644715846E0
3.563442084E-1,1.261127472E0,4.569996643E-1,5.763315125E0,5.917355188E0
3.664192084E-1,1.538201294E0,2.769241333E-2,5.969885559E0,6.164930144E0
3.764952084E-1,1.801204376E0,-5.312452698E-1,6.084846497E0,6.368038601E0
3.865702084E-1,1.500330048E0,-8.674461365E-1,6.641389160E0,6.863781977E0
3.966462084E-1,6.424639893E-1,-7.289840698E-1,7.462731171E0,7.525724834E0
4.067212084E-1,-3.811074829E-1,-4.465214539E-1,8.715027008E0,8.734776475E0
4.167962084E-1,-1.105900269E0,1.296304321E-1,1.012210098E1,1.018316001E1
4.268722084E-1,-2.165846100E0,1.753453674E0,9.814340973E0,1.020229277E1
4.369472084E-1,-3.289559326E0,1.860032043E0,9.082662506E0,9.837462984E0
4.470232084E-1,-4.521946564E0,-1.544787598E0,9.347611542E0,1.049820037E1
4.570982084E-1,-3.904181213E0,-5.211113434E0,1.007390121E1,1.199507482E1
4.671742084E-1,-1.925296326E0,-4.184398499E0,8.953181763E0,1.006853616E1
4.772492084E-1,-1.230740662E0,-1.414408722E0,8.248297577E0,8.458704837E0
4.873242084E-1,-1.473685455E0,1.499880981E-1,6.258784790E0,6.431689692E0
4.974002084E-1,-1.878294067E0,-7.394622803E-2,6.745123444E0,7.002153020E0
5.074752084E-1,-3.323239288E0,-7.174580383E-1,6.472689972E0,7.311250295E0
5.175512084E-1,-4.029320984E0,-7.496411133E-1,5.614225159E0,6.951036867E0
5.276262084E-1,-2.443518677E0,8.292755127E-2,5.561085663E0,6.074811458E0
5.377022084E-1,-1.443148956E0,4.909790039E-2,6.908882904E0,7.058169203E0
5.477772084E-1,-1.998045044E0,-1.361718292E0,9.363478546E0,9.670635511E0
5.578522084E-1,-3.206781464E0,-2.702480164E0,1.211954727E1,1.282459639E1
5.679282084E-1,-4.106410675E0,-2.603086853E0,1.338336914E1,1.423914461E1
5.780032084E-1,-5.677543488E0,-2.310146027E0,1.264001495E1,1.404782021E1
5.880792083E-1,-7.181915131E0,-1.343456268E0,1.071307205E1,1.296744742E1
5.981542084E-1,-7.653883667E0,1.143621826E-1,8.939859467E0,1.176928635E1
6.082302083E-1,-7.113956451E0,5.975573730E-1,6.999893646E0,9.998197951E0
6.183052083E-1,-3.350482635E0,1.229094086E0,4.613406372E0,5.832660158E0
6.283812083E-1,-2.628384247E0,1.112336884E0,8.579259338E0,9.041536810E0
6.384562083E-1,-7.496710510E0,-1.360670471E0,1.132335297E1,1.364809199E1
6.485312083E-1,-6.373596039E0,-2.634970551E0,9.115294647E0,1.143041525E1
6.586072083E-1,-6.473588104E0,-1.625769196E0,7.585625610E0,1.010406771E1
6.686822083E-1,-7.232958984E0,-1.823208618E-1,6.870263214E0,9.977447228E0
6.787582083E-1,-7.511230316E0,4.697232056E-1,4.688250732E0,8.866730834E0
6.888332083E-1,-7.188950500E0,1.444047089E0,1.996997223E0,7.599623622E0
6.989092084E-1,-7.119794312E0,1.453776855E0,1.020877075E0,7.338060247E0
7.089842084E-1,-5.902525635E0,9.562115479E-1,1.054856415E0,6.071809570E0
7.190592083E-1,-4.734953613E0,-2.832110596E-1,2.697390747E0,5.456730804E0
7.291352084E-1,-5.533393250E0,-2.479443970E0,2.261497192E0,6.471510859E0
7.392102084E-1,-6.251599731E0,-4.190685425E0,2.196831665E0,7.840306939E0
7.492862084E-1,-7.490722961E0,-4.886588287E0,2.590363312E0,9.311265095E0
7.593612084E-1,-1.153845566E1,-5.113217010E0,3.565136261E0,1.311453940E1
7.694372084E-1,-1.603974518E1,-5.654192047E0,4.985083466E0,1.772270776E1
7.795122084E-1,-1.936268509E1,-7.703430634E0,5.940995636E0,2.166914503E1
7.895872084E-1,-2.084026245E1,-1.185085602E1,7.139553223E0,2.501464666E1
7.996632084E-1,-2.028536636E1,-1.606234818E1,7.242988129E0,2.686923881E1
8.097382084E-1,-1.875195511E1,-1.733350479E1,7.735314331E0,2.668185332E1
8.198142084E-1,-1.682456314E1,-1.416279831E1,9.430838470E0,2.392888412E1
8.298892084E-1,-1.759605881E1,-9.951006775E0,7.408693542E0,2.152980635E1
8.399652084E-1,-1.826382019E1,-8.047115936E0,4.500541077E0,2.045918065E1
8.500402084E-1,-1.691901672E1,-8.971144409E0,6.535110168E0,2.023467874E1
8.601152084E-1,-1.528606247E1,-9.896220703E0,8.131540375E0,1.994293958E1
8.701912084E-1,-1.418106033E1,-9.904752960E0,6.067332916E0,1.833082464E1
8.802662084E-1,-1.347527802E1,-9.706116028E0,5.124593353E0,1.737967960E1
8.903422084E-1,-1.313069458E1,-9.965077515E0,5.368585968E0,1.733607872E1
9.004172084E-1,-1.250694168E1,-9.678872681E0,6.012397156E0,1.691901552E1
9.104932084E-1,-1.166868484E1,-8.588839417E0,6.582411804E0,1.591397228E1
9.205682084E-1,-1.074091415E1,-7.481442261E0,6.173312531E0,1.447235305E1
9.306442083E-1,-9.526190186E0,-6.419550476E0,4.455634460E0,1.232118526E1
9.407192084E-1,-8.457263031E0,-5.114713898E0,2.337239685E0,1.015619444E1
9.507942084E-1,-7.780670013E0,-3.473377075E0,9.788145447E-1,8.576785649E0
9.608702083E-1,-7.100783844E0,-1.948647766E0,7.533833313E-1,7.401752884E0
9.709452083E-1,-6.561156006E0,-8.214916992E-1,9.919871521E-1,6.686378336E0
9.810212083E-1,-5.779032440E0,-8.023315430E-2,9.906399536E-1,5.863874216E0
9.910962083E-1,-5.021906891E0,1.152603149E-2,8.988807678E-1,5.101731893E0
1.001172208E0,-4.570745087E0,-1.348695374E-1,1.701960754E0,4.879197767E0
1.011247208E0,-3.741619263E0,1.631607056E-2,2.501298523E0,4.500719412E0
1.021322208E0,-3.097808075E0,1.179547119E-1,2.552941132E0,4.015947784E0
1.031398208E0,-2.576741638E0,-1.047821045E-2,2.462678833E0,3.564336446E0
1.041473208E0,-1.551972656E0,-1.426533508E-1,1.597328339E0,2.231687013E0
1.051549208E0,-7.682025146E-1,-5.602848816E-1,-1.002914429E-2,9.508705673E-1
1.061624208E0,-2.851570129E-1,-7.119195557E-1,-1.548978882E0,1.728432687E0
1.071700208E0,-1.556762695E-2,-6.753955078E-1,-3.049159241E0,3.123103187E0
1.081775208E0,-4.008663940E-1,-5.363346863E-1,-4.390669556E0,4.441433092E0
1.091850208E0,-1.100511475E0,-1.974394226E-1,-4.646936646E0,4.779553119E0
1.101926208E0,-1.329086151E0,-1.546284485E-1,-3.908372498E0,4.131071959E0
1.112001208E0,-1.710493011E0,-4.328997803E-1,-2.773133240E0,3.286861197E0
1.122077208E0,-1.972897339E0,-6.325845337E-1,-1.819167023E0,2.757146307E0
1.132152208E0,-1.953437805E0,-7.376660156E-1,-1.032253418E0,2.329295500E0
1.142228208E0,-1.764231262E0,-9.336085510E-1,-3.716770935E-1,2.030340054E0
1.152303208E0,-1.356628876E0,-1.181792450E0,-1.459465027E-1,1.805097139E0
1.162378208E0,-1.364263000E0,-1.467099152E0,-2.859054565E-1,2.023693501E0
1.172454208E0,-1.645079041E0,-1.644480286E0,-3.200344849E-1,2.347982651E0
1.182529208E0,-2.032174072E0,-1.407223663E0,-4.351451111E-1,2.509852818E0
1.192605208E0,-2.616409149E0,-1.017434235E0,-5.878276062E-1,2.868154555E0
1.202680208E0,-3.276985474E0,-7.797285461E-1,-5.037025452E-1,3.405925227E0
1.212756208E0,-3.829037476E0,-8.143066406E-1,-3.092568970E-1,3.926864286E0
1.222831208E0,-3.956871643E0,-1.113085327E0,-2.077679443E-1,4.115696741E0
1.232906208E0,-3.608096924E0,-1.549877014E0,-4.682263184E-1,3.954708340E0
1.242982208E0,-3.279081116E0,-2.344424744E0,-8.599617004E-1,4.121678598E0
1.253057208E0,-3.677552490E0,-4.098028107E0,-6.834786987E-1,5.548456525E0
1.263133208E0,-4.230053558E0,-6.107449493E0,4.954696655E-1,7.445789589E0
1.273208208E0,-5.448370056E0,-8.399034119E0,9.410929871E-1,1.005555401E1
1.283284208E0,-8.102800140E0,-1.132365234E1,5.727090454E-1,1.393586984E1
1.293359208E0,-1.242072098E1,-1.418854477E1,4.644841003E-1,1.886279030E1
1.303434208E0,-1.687366104E1,-1.688159454E1,3.135978699E-1,2.387063080E1
1.313510208E0,-2.028012726E1,-2.033835617E1,1.227447510E-2,2.872163721E1
1.323585208E0,-2.250001099E1,-2.479384094E1,4.644841003E-1,3.348433647E1
1.333661208E0,-2.272723846E1,-2.880220551E1,2.809956665E0,3.679660673E1
1.343736583E0,-2.132315826E1,-3.092748596E1,5.795647888E0,3.801020916E1
1.353812583E0,-1.926284271E1,-3.011871780E1,7.763306122E0,3.658501324E1
1.363887583E0,-1.818223984E1,-2.724873596E1,8.453820190E0,3.383126561E1
1.373962583E0,-1.719893463E1,-2.391471909E1,7.625442810E0,3.042802194E1
1.384038583E0,-1.591325821E1,-2.109039230E1,5.431455231E0,2.697289640E1
1.394113583E0,-1.433988007E1,-1.903741150E1,3.210224304E0,2.404913173E1
1.404189583E0,-1.245649658E1,-1.715702179E1,1.697470093E0,2.126991087E1
1.414264583E0,-1.104448288E1,-1.540775940E1,1.074016571E0,1.898771085E1
1.424340583E0,-1.001462448E1,-1.384994888E1,1.343156891E0,1.714403272E1
1.434415583E0,-9.369915161E0,-1.244257553E1,2.209405518E0,1.573195693E1
1.444490583E0,-8.458161163E0,-1.097368011E1,3.068918152E0,1.419085636E1
1.454566583E0,-7.088509369E0,-9.527238007E0,3.477119293E0,1.237358427E1
1.464641583E0,-5.640121307E0,-8.222401428E0,3.613036652E0,1.060532354E1
1.474717583E0,-4.465813293E0,-6.956034851E0,3.862867126E0,9.124234305E0
1.484792583E0,-3.814218292E0,-5.638325043E0,4.041595459E0,7.916657396E0
1.494868583E0,-3.436104584E0,-4.121080170E0,3.926335144E0,6.648776138E0
1.504943583E0,-2.993475037E0,-2.525697784E0,2.983595581E0,4.923604846E0
1.515018583E0,-2.811453552E0,-1.213227081E0,1.870360565E0,3.588096943E0
1.525094583E0,-2.621199188E0,-1.103205872E-1,1.147663422E0,2.863561968E0
1.535169583E0,-1.891616364E0,6.896159363E-1,2.161505127E-1,2.024970037E0
1.545245583E0,-1.084045715E0,1.055305481E0,-7.038363647E-1,1.668595337E0
1.555320583E0,-8.418493652E-1,1.008752289E0,-1.165326691E0,1.756211215E0
1.565396583E0,-6.809339905E-1,9.292675781E-1,-9.999206543E-1,1.525467353E0
1.575471583E0,-5.917195129E-1,9.403445435E-1,-6.981481934E-1,1.312170241E0
1.585547583E0,-5.896238708E-1,8.184979248E-1,-5.577401733E-1,1.152679167E0
1.595622583E0,-5.692662048E-1,4.715194702E-1,-5.346881104E-1,9.122970997E-1
1.605697583E0,-5.683680725E-1,4.969665527E-2,-4.881349182E-1,7.508579904E-1
1.615773583E0,-5.736071777E-1,-2.439926147E-1,-4.144880676E-1,7.485706036E-1
1.625848583E0,-6.592291260E-1,-5.146298218E-1,-4.574487305E-1,9.532503527E-1
1.635924583E0,-7.539820862E-1,-6.861730957E-1,-4.830455017E-1,1.128120322E0
1.645999583E0,-7.197033691E-1,-5.652246094E-1,-5.186714172E-1,1.051889651E0
1.656075583E0,-6.976991272E-1,-1.941462708E-1,-3.977229309E-1,8.262326405E-1
1.666150583E0,-8.072712708E-1,9.250762939E-2,-4.760101318E-2,8.139474323E-1
1.676225583E0,-1.000818787E0,1.402583313E-1,5.095404053E-1,1.131787112E0
1.686301583E0,-1.236578522E0,1.510359192E-1,1.187929688E0,1.721370161E0
1.696376583E0,-1.324296112E0,1.053808594E-1,1.680255890E0,2.141990937E0
1.706452583E0,-1.179397430E0,-1.922003174E-1,1.918260956E0,2.260009813E0
1.716527583E0,-7.020401001E-1,-6.054908752E-1,1.845063171E0,2.064881984E0
1.726603583E0,-8.232879639E-2,-1.048868866E0,1.331032104E0,1.696629126E0
1.736678583E0,3.213816833E-1,-1.365460510E0,8.759783936E-1,1.653815811E0
1.746753583E0,3.249742126E-1,-1.341510315E0,7.360194397E-1,1.564283472E0
1.756829583E0,2.275268555E-2,-1.035696259E0,7.581733704E-1,1.283748918E0
1.766904583E0,-3.382965088E-1,-9.282197571E-1,6.265969849E-1,1.169897528E0
1.776980583E0,-6.831793213E-1,-1.522633667E0,3.010240173E-1,1.695807397E0
1.787055583E0,-9.116043091E-1,-2.488874359E0,2.787203979E-1,2.665183493E0
1.797131583E0,-1.412313080E0,-3.329077148E0,5.860313416E-1,3.663443138E0
1.807206583E0,-2.662962341E0,-4.722080383E0,3.170407104E-1,5.430462815E0
1.817281583E0,-5.382656708E0,-6.633305969E0,-3.345542908E-1,8.549015609E0
1.827357583E0,-9.427395630E0,-8.419391785E0,-7.682025146E-1,1.266302024E1
1.837432583E0,-1.354862549E1,-1.015368530E1,-2.507286072E-1,1.693296910E1
1.847508583E0,-1.746957184E1,-1.305480240E1,-2.784210205E-2,2.180858962E1
1.857583583E0,-2.040960800E1,-1.707139984E1,1.066981201E0,2.662936800E1
1.867659583E0,-2.160547119E1,-2.108949417E1,3.607797546E0,3.040689647E1
1.877734583E0,-2.071422455E1,-2.287393341E1,7.431296539E0,3.174145706E1
1.887809583E0,-2.063578766E1,-2.310205902E1,9.556576996E0,3.241711010E1
1.897885583E0,-2.140848083E1,-2.295281937E1,9.326804810E0,3.274361398E1
1.907960583E0,-2.168615341E1,-2.206905716E1,8.272098083E0,3.202749039E1
1.918036583E0,-2.113020950E1,-2.073652817E1,6.655310211E0,3.034439830E1
1.928111583E0,-1.971071136E1,-1.942690155E1,4.588857422E0,2.805306149E1
1.938187583E0,-1.798195633E1,-1.793824722E1,3.057392120E0,2.558278940E1
1.948262583E0,-1.631442398E1,-1.643642029E1,2.804717560E0,2.332772561E1
1.958337583E0,-1.486468872E1,-1.513562531E1,3.630101166E0,2.152263364E1
1.968413583E0,-1.373573639E1,-1.384201538E1,4.763394470E0,2.007390771E1
1.978488583E0,-1.289478516E1,-1.254780670E1,5.312303009E0,1.876015726E1
1.988564583E0,-1.157183624E1,-1.132410141E1,5.609285431E0,1.713495695E1
1.998639583E0,-9.667945404E0,-9.787247314E0,5.837560730E0,1.494444692E1
2.008715583E0,-7.695497131E0,-8.099357300E0,5.259762268E0,1.234849642E1
2.018790583E0,-5.756279755E0,-6.326294403E0,4.527934113E0,9.677755154E0
2.028865583E0,-4.133953400E0,-4.249962158E0,3.687581635E0,6.982120550E0
2.038941583E0,-2.725681915E0,-2.168390808E0,2.617606659E0,4.356962844E0
2.049016583E0,-1.626817017E0,-5.357359314E-1,1.598825226E0,2.343029811E0
2.059092583E0,-1.131347351E0,3.948788452E-1,6.619235229E-1,1.368948093E0
2.069167583E0,-1.026415558E0,7.292834473E-1,-9.984237671E-2,1.263072343E0
2.079243583E0,-6.018983459E-1,7.011419678E-1,-5.688171387E-1,1.085096593E0
2.089318583E0,-3.367996216E-2,7.439529419E-1,-8.629554749E-1,1.139865111E0
2.099393583E0,7.065307617E-2,7.134164429E-1,-1.288819885E0,1.474792045E0
2.109469583E0,-5.523513794E-2,7.426057434E-1,-1.631756744E0,1.793639954E0
2.119544583E0,-3.746708679E-1,8.183482361E-1,-2.110910339E0,2.294779849E0
2.129620583E0,-4.758604431E-1,7.087760925E-1,-2.636916504E0,2.771666531E0
2.139695583E0,-5.074447632E-1,3.996688843E-1,-2.732118530E0,2.807437812E0
2.149771583E0,-7.339237976E-1,7.349716187E-2,-2.163151703E0,2.285447716E0
2.159846583E0,-1.071022797E0,-1.224453735E-1,-1.348994751E0,1.726809063E0
2.169921583E0,-1.233135681E0,-2.040257263E-1,-4.281097412E-1,1.321184338E0
2.179997583E0,-1.342558136E0,-2.565664673E-1,3.676354980E-1,1.415430874E0
2.190072583E0,-1.578916626E0,-4.281097412E-1,1.027164001E0,1.931662897E0
2.200148583E0,-1.722019043E0,-5.364843750E-1,1.745220795E0,2.509773036E0
2.210223583E0,-2.023192749E0,-5.125341797E-1,2.270777893E0,3.084223148E0
2.220299583E0,-2.371817780E0,-3.646417236E-1,2.439626770E0,3.422026000E0
2.230374583E0,-2.595452728E0,-2.836601257E-1,2.327809296E0,3.497932825E0
2.240449583E0,-2.719245300E0,-3.088078308E-1,1.917961578E0,3.341890767E0
2.250525583E0,-2.728526001E0,-4.260140991E-1,1.382674713E0,3.088386555E0
2.260600583E0,-2.521356812E0,-5.840853882E-1,7.629634094E-1,2.698241849E0
2.270676583E0,-2.177970886E0,-9.839039612E-1,1.133143616E-1,2.392585282E0
2.280751583E0,-1.974693604E0,-1.378932495E0,-2.806663513E-1,2.424797570E0
2.290827583E0,-2.145189056E0,-1.678459625E0,-3.857478333E-1,2.750975135E0
2.300902583E0,-2.525099030E0,-2.101779327E0,-3.725752258E-1,3.306420081E0
2.310977583E0,-3.218457184E0,-2.569706268E0,-3.472778320E-1,4.133093133E0
2.321053583E0,-4.384682007E0,-3.247047729E0,-5.870791626E-1,5.487569335E0
2.331128583E0,-6.413712616E0,-4.789739685E0,-1.274749146E0,8.105695600E0
2.341204583E0,-9.838740234E0,-7.684120789E0,-1.693877563E0,1.259824364E1
2.351279458E0,-1.363559464E1,-1.147139511E1,-1.293609924E0,1.786605086E1
2.361355458E0,-1.670286621E1,-1.543470337E1,-4.317022705E-1,2.274647609E1
2.371430458E0,-1.922931244E1,-1.941432770E1,9.488768005E-1,2.734196306E1
2.381505458E0,-2.045675995E1,-2.256407776E1,2.825075226E0,3.058754130E1
2.391581458E0,-2.021171951E1,-2.411994232E1,4.385131073E0,3.177285945E1
2.401656458E0,-2.010289581E1,-2.483201157E1,5.453160095E0,3.241129700E1
2.411732458E0,-1.971220825E1,-2.483964569E1,6.734944611E0,3.241818365E1
2.421807458E0,-1.922571991E1,-2.368150406E1,7.317832489E0,3.136865654E1
2.431883458E0,-1.882664978E1,-2.191667404E1,6.154751129E0,2.954089207E1
2.441958458E0,-1.843566284E1,-2.014211426E1,4.399650879E0,2.765746480E1
2.452033458E0,-1.752585480E1,-1.792971497E1,3.033441925E0,2.525533676E1
2.462109458E0,-1.635693558E1,-1.575773163E1,2.215243378E0,2.282022679E1
2.472184458E0,-1.508907211E1,-1.427057419E1,2.479743347E0,2.091598699E1
2.482260458E0,-1.378692993E1,-1.307261536E1,3.376678162E0,1.929701181E1
2.492335458E0,-1.267264709E1,-1.172302185E1,4.420008545E0,1.782026098E1
2.502411458E0,-1.184397034E1,-1.007764343E1,5.287754059E0,1.642555550E1
2.512486458E0,-1.100271973E1,-8.469387817E0,5.349276123E0,1.487968838E1
2.522561458E0,-9.541608124E0,-7.422913971E0,5.035229187E0,1.309562791E1
2.532637458E0,-7.455097046E0,-6.416407013E0,4.762496338E0,1.092840896E1
2.542712458E0,-5.542075195E0,-5.368885345E0,4.050277405E0,8.714601217E0
2.552788458E0,-3.907474365E0,-4.289030914E0,3.060685272E0,6.559873203E0
2.562863458E0,-2.590962067E0,-3.168012085E0,2.034718781E0,4.570499482E0
2.572939458E0,-1.953288116E0,-2.071841583E0,1.468446350E0,3.203778503E0
2.583014458E0,-1.757644958E0,-8.698411560E-1,1.358275452E0,2.385550595E0
2.593089458E0,-1.450932770E0,3.029699707E-1,1.169817352E0,1.888245043E0
2.603165458E0,-1.375190277E0,1.032552795E0,7.915539551E-1,1.893111523E0
2.613240458E0,-1.507066040E0,1.252146149E0,5.685177612E-1,2.040179029E0
2.623316458E0,-1.601519623E0,1.221759338E0,3.296145630E-1,2.041128791E0
2.633391458E0,-1.896855469E0,1.171014862E0,-2.601589966E-1,2.244330452E0
2.643467458E0,-2.237846375E0,1.043330383E0,-8.876541138E-1,2.623818689E0
2.653542458E0,-2.130519562E0,7.794291687E-1,-1.675914917E0,2.820516662E0
2.663617458E0,-1.556912384E0,4.933740234E-1,-2.734663239E0,3.185243653E0
2.673693458E0,-8.017327881E-1,2.341131592E-1,-3.427272949E0,3.527574847E0
2.683768458E0,-2.348616028E-1,4.396357727E-1,-3.306773529E0,3.344127802E0
2.693844458E0,-4.418811035E-1,6.598278809E-1,-3.074606323E0,3.175505595E0
2.703919458E0,-9.918374634E-1,3.436853027E-1,-2.606829071E0,2.810234678E0
2.713994458E0,-1.355431366E0,-7.484436035E-2,-1.751956787E0,2.216336719E0
2.724070458E0,-1.624871063E0,-3.290158081E-1,-8.720864868E-1,1.873230422E0
2.734145458E0,-1.889071655E0,-5.249583435E-1,9.355545044E-2,1.962887058E0
2.744221458E0,-2.131717072E0,-6.038442993E-1,1.123413849E0,2.484130489E0
2.754296458E0,-2.336790619E0,-6.149212646E-1,1.950743408E0,3.105498093E0
2.764372458E0,-2.509681091E0,-5.751040649E-1,2.462379456E0,3.562661428E0
2.774447458E0,-2.584974518E0,-5.551954651E-1,2.470312958E0,3.618394861E0
2.784522458E0,-2.601440277E0,-4.954696655E-1,2.014361115E0,3.327255987E0
2.794598458E0,-2.384691010E0,-3.291654968E-1,1.444196777E0,2.807277234E0
2.804673458E0,-2.127525787E0,-2.418969727E-1,7.209008789E-1,2.259331361E0
2.814749458E0,-2.054028625E0,-6.276448059E-1,-2.544708252E-3,2.147784457E0
2.824824458E0,-2.073637848E0,-1.353485413E0,-2.969824219E-1,2.494011878E0
2.834900458E0,-2.039508820E0,-2.126477966E0,-1.872605896E-1,2.952384002E0
2.844975458E0,-2.115999756E0,-2.981050873E0,-4.490661621E-4,3.655696852E0
2.855050458E0,-2.723586273E0,-4.091292114E0,2.170486450E-2,4.914983668E0
2.865126458E0,-4.004472656E0,-5.532944183E0,-2.653981018E-1,6.835181691E0
2.875201458E0,-6.383924561E0,-8.095615082E0,-9.355545044E-1,1.035223351E1
2.885277458E0,-9.396260376E0,-1.207089844E1,-1.609303436E0,1.538135741E1
2.895352458E0,-1.214694031E1,-1.625394974E1,-1.359472961E0,2.033684360E1
2.905428458E0,-1.415725983E1,-1.958721817E1,-3.129991150E-1,2.416992118E1
2.915503458E0,-1.568423447E1,-2.216306168E1,4.093986511E-1,2.715444938E1
2.925578458E0,-1.666694092E1,-2.422876602E1,1.064735870E0,2.942709100E1
2.935654458E0,-1.707514206E1,-2.590498032E1,2.312840424E0,3.111234019E1
2.945729458E0,-1.691557388E1,-2.700758743E1,4.197870483E0,3.214293912E1
2.955805458E0,-1.621353378E1,-2.724155090E1,5.928870850E0,3.225108189E1
2.965880458E0,-1.504656052E1,-2.662468369E1,6.991211700E0,3.137116201E1
2.975956458E0,-1.406145905E1,-2.563419342E1,7.223977661E0,3.011681185E1
2.986031458E0,-1.397374146E1,-2.440959000E1,6.824308777E0,2.894243812E1
2.996106458E0,-1.416938461E1,-2.254746231E1,6.083499298E0,2.731608465E1
3.006182458E0,-1.400787048E1,-2.031410660E1,5.069507904E0,2.519093632E1
3.016257458E0,-1.406684784E1,-1.846649872E1,4.050127716E0,2.356462004E1
3.026333458E0,-1.380818573E1,-1.649000885E1,3.601660309E0,2.180730020E1
3.036408458E0,-1.287038589E1,-1.399050659E1,3.505709839E0,1.933057447E1
3.046484458E0,-1.168021088E1,-1.151465515E1,3.319197693E0,1.673414721E1
3.056559458E0,-1.022523651E1,-9.302405548E0,3.329226837E0,1.421878905E1
3.066634458E0,-8.614436188E0,-7.016658783E0,3.793261871E0,1.174013828E1
3.076710458E0,-7.250472565E0,-4.700824585E0,4.272265778E0,9.639468817E0
3.086785458E0,-6.285579071E0,-2.675087128E0,4.508324890E0,8.184716777E0
3.096861458E0,-5.748795319E0,-9.900411987E-1,4.761298828E0,7.529860272E0
3.106936458E0,-5.442083130E0,3.414399719E-1,4.863685913E0,7.306729139E0
3.117012458E0,-5.028044128E0,1.279688873E0,4.548890533E0,6.900089598E0
3.127087458E0,-4.465364227E0,1.878443756E0,3.687132568E0,6.087936859E0
3.137162458E0,-3.611390076E0,2.207309875E0,2.196232910E0,4.768416316E0
3.147238458E0,-2.766696625E0,2.394720154E0,5.060975647E-1,3.693972059E0
3.157313458E0,-2.168091431E0,2.416425018E0,-8.214916992E-1,3.348817542E0
3.167389458E0,-1.534010010E0,2.209106140E0,-1.569037170E0,3.113713906E0
3.177464458E0,-1.022523651E0,1.944755859E0,-1.861079865E0,2.879452766E0
3.187539458E0,-7.433541870E-1,1.697021027E0,-2.088756409E0,2.792017039E0
3.197615458E0,-5.498066711E-1,1.201701050E0,-2.139500885E0,2.514724006E0
3.207690458E0,-3.055146790E-1,7.159611511E-1,-2.227218475E0,2.359330779E0
3.217766458E0,-6.331832886E-2,3.487747192E-1,-2.199076996E0,2.227463277E0
3.227841458E0,1.465452576E-1,4.879852295E-2,-1.988914032E0,1.994902463E0
3.237917458E0,2.956352234E-1,-2.451901245E-1,-1.596579895E0,1.642128419E0
3.247992458E0,3.041674805E-1,-4.866380310E-1,-1.090332642E0,1.232136234E0
3.258067458E0,1.309776306E-1,-5.507048035E-1,-5.418731689E-1,7.836181797E-1
3.268143458E0,-3.113525391E-2,-4.478686523E-1,5.388793945E-3,4.489819294E-1
3.278218458E0,-2.390528870E-1,-3.484753418E-1,4.587959290E-1,6.237588084E-1
3.288294458E0,-4.881349182E-1,-3.269201660E-1,7.298822021E-1,9.369527855E-1
3.298369458E0,-6.761439514E-1,-2.490820312E-1,8.334667969E-1,1.101761954E0
3.308445458E0,-9.794132996E-1,-1.841171265E-1,7.418572998E-1,1.242377471E0
3.318520458E0,-1.234782257E0,-2.894979858E-1,5.604345703E-1,1.386572470E0
3.328595458E0,-1.457968140E0,-4.629872131E-1,4.387376404E-1,1.591389007E0
3.338671458E0,-1.647773438E0,-6.471043396E-1,3.367996216E-1,1.802036435E0
3.348746875E0,-1.663341064E0,-9.066645813E-1,2.137554932E-1,1.906419568E0
3.358822875E0,-1.496438141E0,-1.248852997E0,-1.055305481E-1,1.951947134E0
3.368897875E0,-1.464554443E0,-1.700912933E0,-4.796026611E-1,2.295221827E0
3.378973875E0,-1.918410645E0,-2.463876343E0,-4.188290405E-1,3.150619590E0
3.389048875E0,-3.115471344E0,-3.638334045E0,-1.067280579E-1,4.791140490E0
3.399123875E0,-5.107379150E0,-5.496869202E0,-8.083190918E-2,7.503827464E0
3.409199875E0,-7.175478516E0,-7.998018036E0,-9.113049316E-1,1.078361076E1
3.419274875E0,-9.626631317E0,-1.163769928E1,-1.857637024E0,1.521705919E1
3.429350875E0,-1.163545395E1,-1.558813431E1,-1.970951385E0,1.955142883E1
3.439425875E0,-1.285646484E1,-1.909010193E1,-1.018332367E0,2.303817876E1
3.449500875E0,-1.380698822E1,-2.208058319E1,5.077441406E-1,2.604693613E1
3.459576875E0,-1.491288849E1,-2.453068817E1,2.470013580E0,2.881405685E1
3.469651875E0,-1.669912399E1,-2.684263046E1,4.516707458E0,3.193412279E1
3.479727875E0,-1.877216309E1,-2.850462433E1,6.149062958E0,3.468023487E1
3.489802875E0,-2.003029678E1,-2.878948196E1,6.866670685E0,3.573791023E1
3.499878875E0,-2.049942123E1,-2.848666168E1,6.488407288E0,3.569055329E1
3.509953875E0,-2.044957489E1,-2.793670532E1,4.992867279E0,3.497961322E1
3.520028875E0,-1.932047287E1,-2.690624817E1,3.503763885E0,3.330920629E1
3.530104875E0,-1.780472488E1,-2.574137054E1,2.923720093E0,3.143524336E1
3.540179875E0,-1.625215347E1,-2.423071198E1,3.317700806E0,2.936438377E1
3.550255875E0,-1.476050537E1,-2.199286560E1,4.293222198E0,2.683263709E1
3.560330875E0,-1.345926132E1,-1.931897598E1,5.034181366E0,2.407732399E1
3.570406875E0,-1.251023483E1,-1.644315628E1,5.425767059E0,2.136170200E1
3.580481875E0,-1.133502869E1,-1.320419174E1,5.605393524E0,1.828261446E1
3.590556875E0,-9.895172882E0,-9.971813507E0,5.132227478E0,1.495631204E1
3.600632875E0,-8.764274597E0,-6.980134735E0,4.078867950E0,1.192358813E1
3.610707875E0,-7.811505890E0,-4.141886902E0,2.934048615E0,9.315765811E0
3.620783875E0,-7.018754425E0,-1.366358643E0,1.714384918E0,7.353160223E0
3.630858875E0,-6.112389221E0,1.089584198E0,4.715194702E-1,6.226622385E0
3.640934875E0,-5.320086823E0,2.907703400E0,-2.219883728E-1,6.066905447E0
3.651009875E0,-4.310885468E0,4.050726471E0,-6.486012268E-1,5.950865652E0
3.661084875E0,-2.843187561E0,4.597689056E0,-1.450483704E0,5.596995903E0
3.671160875E0,-1.873054962E0,4.734055481E0,-1.797162781E0,5.399019378E0
3.681235875E0,-1.086440735E0,4.369862823E0,-2.064506836E0,4.953609093E0
3.691311875E0,-6.011499023E-1,3.567082214E0,-2.115101624E0,4.190359365E0
3.701386875E0,-2.056723022E-1,2.743345184E0,-2.101929016E0,3.462130772E0
3.711461875E0,-1.146615601E-1,2.231110382E0,-2.210752716E0,3.142996720E0
3.721537875E0,-4.819976807E-2,1.739682312E0,-2.364033966E0,2.935553501E0
3.731612875E0,1.437011719E-2,1.143023071E0,-2.304158478E0,2.572130349E0
3.741688875E0,-2.380050659E-2,5.502557373E-1,-1.813179474E0,1.894984867E0
3.751763875E0,-3.263214111E-1,6.197113037E-2,-8.957373047E-1,9.553383711E-1
3.761839875E0,-5.493576050E-1,-1.019380188E-1,1.034349060E-1,5.682287546E-1
3.771914875E0,-5.812413025E-1,-6.301895142E-2,9.136999512E-1,1.084739803E0
3.781989875E0,-7.108717346E-1,-9.131011963E-2,1.507814484E0,1.669485154E0
3.792065875E0,-8.490344238E-1,-1.619631958E-1,1.886976013E0,2.075516804E0
3.802140875E0,-9.553134155E-1,-1.020877075E-1,2.061962128E0,2.274804044E0
3.812216875E0,-1.186582489E0,4.326004028E-2,2.096240845E0,2.409164817E0
3.822291875E0,-1.379381561E0,1.448986816E-1,2.000739441E0,2.434470667E0
3.832367875E0,-1.430874481E0,1.534309387E-1,1.681603088E0,2.213307882E0
3.842442875E0,-1.463506622E0,1.417552185E-1,1.136885834E0,1.858616575E0
3.852517875E0,-1.456171875E0,1.802252197E-1,6.994953918E-1,1.625488069E0
3.862593875E0,-1.366059265E0,1.384620667E-1,4.745132446E-1,1.452739646E0
3.872668875E0,-1.144819336E0,9.295669556E-2,5.373825073E-1,1.268082102E0
3.882744875E0,-9.961784363E-1,-4.460723877E-2,6.774911499E-1,1.205551965E0
3.892819875E0,-1.100212097E0,-6.065386963E-1,7.942483521E-1,1.486333170E0
3.902894875E0,-1.235381012E0,-1.472637634E0,9.256750488E-1,2.133471852E0
3.912970875E0,-1.708247681E0,-2.575544128E0,1.043480072E0,3.261960815E0
3.923045875E0,-2.899021454E0,-4.132456512E0,9.134005737E-1,5.129895011E0
3.933121875E0,-4.578079834E0,-6.274801483E0,6.276448059E-1,7.792681607E0
3.943196875E0,-7.330855408E0,-9.262139282E0,5.089416504E-1,1.182318429E1
3.953272875E0,-1.078222824E1,-1.310419968E1,3.097059631E-1,1.697269610E1
3.963347875E0,-1.381402359E1,-1.675705353E1,1.526824951E-1,2.171749071E1
3.973422875E0,-1.606309662E1,-1.972702744E1,4.071533203E-1,2.544296481E1
3.983498875E0,-1.799797302E1,-2.297033295E1,9.312135315E-1,2.919641052E1
3.993573875E0,-1.980187180E1,-2.718152573E1,1.349593506E0,3.365666160E1
4.003649875E0,-2.003059616E1,-3.011722092E1,2.774480438E0,3.627629419E1
4.013724875E0,-1.882156036E1,-3.072780121E1,4.992268524E0,3.637817542E1
4.023800875E0,-1.720117996E1,-2.969509872E1,6.206543427E0,3.487406861E1
4.033875875E0,-1.589424774E1,-2.737447449E1,6.773564301E0,3.237082233E1
4.043950875E0,-1.540611282E1,-2.497301834E1,6.493047638E0,3.005261428E1
4.054026875E0,-1.515298920E1,-2.323603043E1,5.375321960E0,2.825633164E1
4.064101875E0,-1.479059280E1,-2.179123489E1,4.325405273E0,2.668948640E1
4.074177875E0,-1.425425812E1,-2.018477554E1,3.677253113E0,2.498261853E1
4.084252875E0,-1.367690872E1,-1.836890167E1,2.961741028E0,2.309212616E1
4.094328875E0,-1.330538132E1,-1.638881927E1,2.589764557E0,2.126813226E1
4.104403875E0,-1.260543686E1,-1.402418655E1,2.626438293E0,1.903872435E1
4.114478875E0,-1.139490417E1,-1.135224289E1,2.543211365E0,1.628450748E1
4.124554875E0,-9.926607513E0,-8.598120117E0,2.408641205E0,1.335165753E1
4.134629875E0,-8.332722015E0,-6.083648987E0,2.470013580E0,1.060877035E1
4.144705875E0,-6.743027802E0,-3.951931915E0,2.494861908E0,8.204299223E0
4.154780875E0,-5.253026276E0,-2.026485901E0,2.460283813E0,6.144422398E0
4.164855875E0,-3.942351837E0,-2.436932373E-1,2.184706879E0,4.513808652E0
4.174931875E0,-3.443439331E0,1.170865173E0,1.270857239E0,3.852697471E0
4.185006875E0,-3.013982391E0,1.876198425E0,-3.899391174E-1,3.571591088E0
4.195082875E0,-2.561323700E0,1.879641266E0,-1.824705505E0,3.663738605E0
4.205157875E0,-1.903441772E0,2.007325745E0,-2.481539612E0,3.716246234E0
4.215233875E0,-1.411265259E0,2.094594269E0,-3.249592438E0,4.115682907E0
4.225308875E0,-8.189469910E-1,1.713486786E0,-4.255201263E0,4.659769193E0
4.235383875E0,-3.327580261E-1,1.545236664E0,-4.364623718E0,4.642028054E0
4.245459875E0,-2.188449097E-1,1.761087799E0,-4.087998962E0,4.456574789E0
4.255534875E0,-1.959425354E-1,2.009421387E0,-3.536096649E0,4.071872702E0
4.265610875E0,-9.879455566E-3,2.161205750E0,-2.974913635E0,3.677093830E0
4.275685875E0,-2.993774414E-2,1.784738617E0,-2.571951599E0,3.130674564E0
4.285761875E0,-1.716929626E-1,9.232800293E-1,-2.211201782E0,2.402360882E0
4.295836875E0,-2.297721863E-1,2.465373230E-1,-1.563049622E0,1.598968426E0
4.305911875E0,-2.528242493E-1,-1.853146362E-1,-7.276368713E-1,7.922859534E-1
4.315987875E0,-1.805245972E-1,-5.565426636E-1,9.116043091E-2,5.921478622E-1
4.326062875E0,-1.616638184E-1,-8.113128662E-1,7.705975342E-1,1.130568139E0
4.336138875E0,-3.442840576E-1,-9.078620911E-1,1.242266693E0,1.576696428E0
4.346213708E0,-4.827461243E-1,-9.259744263E-1,1.530417480E0,1.852741246E0
4.356288708E0,-7.060816956E-1,-8.020321655E-1,1.876497803E0,2.159409864E0
4.366364708E0,-9.587562561E-1,-5.852828979E-1,2.158960419E0,2.433696719E0
4.376439708E0,-1.144819336E0,-4.010160828E-1,2.212399292E0,2.523120258E0
4.386515708E0,-1.253343658E0,-1.329235840E-1,2.043550415E0,2.400965911E0
4.396590708E0,-1.073717194E0,1.323248291E-1,1.628912659E0,1.955437271E0
4.406666708E0,-9.571096802E-1,1.434017944E-1,1.182690582E0,1.528195023E0
4.416741708E0,-9.639953613E-1,-1.285826111E-1,8.170010376E-1,1.270161895E0
4.426816708E0,-9.241781616E-1,-5.548960876E-1,5.505551147E-1,1.210423842E0
4.436892708E0,-1.083147583E0,-1.228345642E0,4.162843323E-1,1.689773461E0
4.446967708E0,-1.527872772E0,-2.139800262E0,3.778143311E-1,2.656291407E0
4.457043708E0,-2.418670349E0,-3.387455750E0,5.146298218E-1,4.194003644E0
4.467118708E0,-4.190835114E0,-5.190905457E0,3.514691162E-1,6.680728175E0
4.477193708E0,-6.528074799E0,-8.053402863E0,-3.806584167E-1,1.037390761E1
4.487269708E0,-9.399104462E0,-1.182436111E1,-9.994715881E-1,1.513795309E1
4.497344708E0,-1.235979767E1,-1.523097702E1,-1.069376221E0,1.964410407E1
4.507420708E0,-1.517110153E1,-1.848910172E1,-4.577481079E-1,2.392109398E1
4.517495708E0,-1.753154297E1,-2.235930359E1,2.555186462E-1,2.841405894E1
4.527571708E0,-1.886257507E1,-2.571637253E1,1.385369110E0,3.192252813E1
4.537646708E0,-1.952464828E1,-2.858201340E1,3.095562744E0,3.475235084E1
4.547721708E0,-1.935969131E1,-3.019191559E1,4.902305603E0,3.619919909E1
4.557797708E0,-1.882679947E1,-3.023592407E1,6.116730194E0,3.613964404E1
4.567872708E0,-1.798225571E1,-2.915457275E1,6.519991608E0,3.486919734E1
4.577948708E0,-1.725282257E1,-2.766621780E1,6.309978333E0,3.320986782E1
4.588023708E0,-1.685704559E1,-2.636033340E1,5.749992828E0,3.181335539E1
4.598099708E0,-1.604693024E1,-2.496927612E1,5.383255463E0,3.016534700E1
4.608174708E0,-1.481768646E1,-2.318154373E1,5.297483826E0,2.801805020E1
4.618249708E0,-1.351210144E1,-2.116568573E1,5.321134644E0,2.566861141E1
4.628325708E0,-1.233195557E1,-1.870240814E1,5.666466522E0,2.310770524E1
4.638400708E0,-1.139640106E1,-1.564621353E1,6.090834045E0,2.029236838E1
4.648476708E0,-1.055500076E1,-1.236024673E1,6.164331207E0,1.738340357E1
4.658551708E0,-9.570198669E0,-9.117689667E0,5.671555939E0,1.438358489E1
4.668626708E0,-8.422684937E0,-6.212381287E0,4.683011627E0,1.146585804E1
4.678702708E0,-7.343578949E0,-3.726650391E0,3.420836334E0,8.917297581E0
4.688777708E0,-6.442003784E0,-1.660796356E0,2.069895630E0,6.967217896E0
4.698853708E0,-5.403613129E0,6.541397095E-2,6.538403320E-1,5.443419974E0
4.708928708E0,-4.374503174E0,1.569037170E0,-7.515870667E-1,4.707763671E0
4.719004708E0,-3.657344513E0,2.827170868E0,-1.847907257E0,4.978335589E0
4.729079708E0,-3.110531616E0,3.772006073E0,-2.497556305E0,5.490102389E0
4.739154708E0,-2.487227783E0,4.214785309E0,-2.725981293E0,5.601936384E0
4.749230708E0,-1.934127960E0,4.107608185E0,-2.537972260E0,5.201403576E0
4.759305708E0,-1.483415222E0,3.592678986E0,-2.097737732E0,4.416827663E0
4.769381708E0,-1.155297546E0,2.894381104E0,-1.637145538E0,3.520284066E0
4.779456708E0,-8.879534912E-1,2.138153687E0,-1.129850464E0,2.576184128E0
4.789532708E0,-4.992118835E-1,1.519639893E0,-7.568261719E-1,1.769549028E0
4.799607708E0,-8.906478882E-2,1.003363495E0,-6.509962463E-1,1.199361060E0
4.809682708E0,1.365161133E-1,4.526586914E-1,-5.373825073E-1,7.157628792E-1
4.819758708E0,2.998265076E-1,2.424957275E-2,-3.400927734E-1,4.540342178E-1
4.829833708E0,4.487667847E-1,-1.353186035E-1,-1.288819885E-1,4.861206830E-1
4.839909708E0,5.066963196E-1,-1.314266968E-1,2.842588806E-1,5.956653827E-1
4.849984708E0,3.875440979E-1,-5.358856201E-2,8.702902222E-1,9.541840664E-1
4.860059708E0,1.950444031E-1,1.242416382E-1,1.387315063E0,1.406457034E0
4.870135708E0,-9.415420532E-2,2.406994629E-1,1.765578461E0,1.784395849E0
4.880210708E0,-4.114942932E-1,1.380130005E-1,2.001188507E0,2.047713501E0
4.890286708E0,-7.346722412E-1,-1.474433899E-1,1.865720215E0,2.010570759E0
4.900361708E0,-9.304650879E-1,-5.490582275E-1,1.330732727E0,1.714082789E0
4.910437708E0,-1.043629761E0,-8.544232178E-1,7.373666382E-1,1.537176526E0
4.920512708E0,-1.241817627E0,-9.313632202E-1,2.511776733E-1,1.572462620E0
4.930587708E0,-1.335073700E0,-8.831634521E-1,-2.493814087E-1,1.620058812E0
4.940663708E0,-1.270258484E0,-8.568182373E-1,-6.632707214E-1,1.669617369E0
4.950738708E0,-1.544937286E0,-9.351054382E-1,-8.671467590E-1,2.003296509E0
4.960814708E0,-1.991159363E0,-1.121767273E0,-5.511538696E-1,2.350924927E0
4.970889708E0,-2.613565063E0,-1.441352692E0,2.647993469E-1,2.996387595E0
4.980964708E0,-3.439846802E0,-2.251617737E0,9.639953613E-1,4.222749757E0
4.991040708E0,-4.431085510E0,-3.785328369E0,1.425635376E0,5.999638813E0
5.001115708E0,-5.549709320E0,-5.923332367E0,1.252146149E0,8.212978135E0
5.011191708E0,-7.028334503E0,-8.401878204E0,2.266287231E-1,1.095629517E1
5.021266708E0,-9.440418549E0,-1.105795486E1,-9.357041931E-1,1.456967434E1
5.031342708E0,-1.277742920E1,-1.409468994E1,-1.524130554E0,1.908522872E1
5.041417708E0,-1.588182358E1,-1.774754379E1,-1.149160309E0,2.384382940E1
5.051492708E0,-1.854987534E1,-2.176638657E1,4.760101318E-2,2.859852662E1
5.061568708E0,-2.009675858E1,-2.521192154E1,2.027982788E0,3.230531546E1
5.071643708E0,-2.084265747E1,-2.742836243E1,4.231550446E0,3.470788750E1
5.081719708E0,-2.126253433E1,-2.861479523E1,6.185886383E0,3.618241372E1
5.091794708E0,-2.065898941E1,-2.848381760E1,7.537425842E0,3.598519830E1
5.101869708E0,-1.915701279E1,-2.710533417E1,7.968080292E0,3.413474158E1
5.111945708E0,-1.767659134E1,-2.540651688E1,7.541916504E0,3.185645124E1
5.122020708E0,-1.663924850E1,-2.380664383E1,6.615642700E0,2.978905184E1
5.132096708E0,-1.577344894E1,-2.213926117E1,5.857918396E0,2.780762098E1
5.142171708E0,-1.504700958E1,-2.026560745E1,5.314698029E0,2.579444432E1
5.152247708E0,-1.422132660E1,-1.839105560E1,4.854554901E0,2.374960546E1
5.162322708E0,-1.353635101E1,-1.665301987E1,4.695585480E0,2.196825875E1
5.172397708E0,-1.287906784E1,-1.480675919E1,4.932842102E0,2.023470873E1
5.182473708E0,-1.200428696E1,-1.272309219E1,5.111570435E0,1.822383419E1
5.192548708E0,-1.083746338E1,-1.035786072E1,4.978497162E0,1.579624402E1
5.202624708E0,-9.516610107E0,-7.900271301E0,4.429289246E0,1.313768464E1
5.212699708E0,-8.020321655E0,-5.548811188E0,3.592229919E0,1.039321802E1
5.222774708E0,-6.562353516E0,-3.413800964E0,2.648292847E0,7.856969880E0
5.232850708E0,-4.870870972E0,-1.862576752E0,1.737586670E0,5.496706615E0
5.242925708E0,-3.217409363E0,-3.258723450E-1,8.927435303E-1,3.354833350E0
5.253001708E0,-1.485959930E0,7.686515808E-1,-5.897735596E-2,1.674031211E0
5.263076708E0,3.472778320E-2,1.245110779E0,-7.976911926E-1,1.479127482E0
5.273152708E0,1.415755920E0,9.720785522E-1,-1.403032379E0,2.217611642E0
5.283227708E0,2.639610901E0,4.758604431E-1,-1.958976288E0,3.321381786E0
5.293302708E0,2.935246124E0,7.053332520E-1,-2.087558899E0,3.670295215E0
5.303378708E0,2.286944275E0,1.087937622E0,-2.068698120E0,3.270051116E0
5.313453708E0,1.260229340E0,1.112486572E0,-2.167043610E0,2.742605033E0
5.323529708E0,9.057664490E-1,5.319937134E-1,-2.371668091E0,2.593885060E0
5.333604708E0,7.836204529E-1,8.232879639E-3,-2.302062836E0,2.431794007E0
5.343680708E0,9.404942322E-1,-4.602928162E-1,-1.781295776E0,2.066255918E0
5.353756083E0,1.222058716E0,-7.527845764E-1,-1.259780273E0,1.909753508E0
5.363831083E0,1.350491638E0,-6.450086975E-1,-8.593629456E-1,1.725795051E0
5.373907083E0,1.280287628E0,-4.249662781E-1,-3.670367432E-1,1.398015994E0
5.383982083E0,1.298399963E0,-2.903961182E-1,-1.987866211E-1,1.345246628E0
5.394058083E0,1.331780548E0,-2.293231201E-1,-2.860551453E-1,1.381324027E0
5.404133083E0,1.516496429E0,-1.285826111E-1,-3.980223083E-1,1.573123220E0
5.414208083E0,1.795815582E0,-8.113128662E-2,-2.713856506E-1,1.818017069E0
5.424284083E0,1.936373291E0,-2.285746765E-1,-5.134323120E-2,1.950493279E0
5.434359083E0,1.932481384E0,-5.236111450E-1,2.112107849E-1,2.013271697E0
5.444435083E0,1.708846436E0,-6.093827820E-1,5.544470215E-1,1.897080656E0
5.454510083E0,1.111438751E0,-5.513035583E-1,8.108638000E-1,1.482137582E0
5.464585083E0,5.614823914E-1,-6.325845337E-1,8.960366821E-1,1.232196171E0
5.474661083E0,4.490661621E-4,-7.249424744E-1,9.448352051E-1,1.190905268E0
5.484736083E0,-7.821235657E-1,-6.530918884E-1,9.765692139E-1,1.411358819E0
5.494812083E0,-1.436113586E0,-3.089575195E-1,8.346643066E-1,1.689538838E0
5.504887083E0,-1.895508270E0,7.619155884E-2,3.305126953E-1,1.925615589E0
5.514963083E0,-2.180964661E0,-4.400848389E-2,-2.457888794E-1,2.195212010E0
5.525038083E0,-2.236948242E0,-1.024918671E0,-7.602690125E-1,2.575345548E0
5.535113083E0,-2.406994629E0,-2.643652496E0,-8.821156311E-1,3.682478737E0
5.545189083E0,-3.690874786E0,-4.573140106E0,-3.811074829E-1,5.889092463E0
5.555264083E0,-6.779252472E0,-6.929689636E0,6.203100586E-1,9.714095280E0
5.565340083E0,-1.146525787E1,-9.806108093E0,1.291813660E0,1.514201693E1
5.575415083E0,-1.676543610E1,-1.250769012E1,1.338217163E0,2.095979449E1
5.585490083E0,-2.167133423E1,-1.546134796E1,8.834628296E-1,2.663607544E1
5.595566083E0,-2.460673004E1,-1.962044907E1,4.242178345E-1,3.147432518E1
5.605641083E0,-2.487527161E1,-2.327914078E1,4.989125061E-1,3.407266421E1
5.615717083E0,-2.460613129E1,-2.627920212E1,1.673370209E0,3.603967714E1
5.625792083E0,-2.418879913E1,-2.802591980E1,4.157604218E0,3.725366904E1
5.635868083E0,-2.367222336E1,-2.731190460E1,6.892716522E0,3.679434512E1
5.645943083E0,-2.312541046E1,-2.543286209E1,8.406219177E0,3.538756284E1
5.656018083E0,-2.252830215E1,-2.356714188E1,8.464148712E0,3.368347351E1
5.666094083E0,-2.150024002E1,-2.159439423E1,7.589367828E0,3.140345024E1
5.676169083E0,-2.029374893E1,-1.989497818E1,6.326294403E0,2.911474546E1
5.686245083E0,-1.921973236E1,-1.829271011E1,5.293142853E0,2.705621401E1
5.696320083E0,-1.826052704E1,-1.653521484E1,4.657265167E0,2.507090538E1
5.706395083E0,-1.723755432E1,-1.484373230E1,4.509223022E0,2.319057481E1
5.716471083E0,-1.581326614E1,-1.302651123E1,4.568499756E0,2.099096403E1
5.726546083E0,-1.424767181E1,-1.106528961E1,4.437222748E0,1.857755991E1
5.736622083E0,-1.282398239E1,-9.162296906E0,4.268822937E0,1.632865758E1
5.746697083E0,-1.119566849E1,-7.048841858E0,3.799848175E0,1.376473794E1
5.756773083E0,-8.782835999E0,-4.854105835E0,2.694846039E0,1.039051235E1
5.766848083E0,-6.167324982E0,-3.020718384E0,1.306333466E0,6.990503852E0
5.776923083E0,-3.963308258E0,-1.573527832E0,1.745370483E-1,4.267817401E0
5.786999083E0,-2.300416260E0,-4.144880676E-1,-3.234773254E-1,2.359735770E0
5.797074083E0,-1.101110229E0,5.081932068E-1,-4.046086121E-1,1.278441317E0
5.807150083E0,-2.990780640E-1,1.110989685E0,-4.581971741E-1,1.238422553E0
5.817225083E0,4.067042542E-1,1.480122070E0,-7.339237976E-1,1.701415244E0
5.827300083E0,1.383722534E0,1.742227020E0,-1.015637970E0,2.445723518E0
5.837376083E0,2.389181671E0,1.461560669E0,-1.072819061E0,2.999214795E0
5.847451083E0,2.999312897E0,8.837622070E-1,-9.068142700E-1,3.255645191E0
5.857527083E0,3.353775787E0,3.549119568E-1,-8.193960571E-1,3.470617298E0
5.867602083E0,3.570674744E0,-8.592132568E-2,-7.728428650E-1,3.654365430E0
5.877678083E0,3.400029602E0,-4.043092346E-1,-6.315367126E-1,3.481738915E0
5.887753083E0,3.005001068E0,-5.846841431E-1,-4.610412598E-1,3.095875645E0
5.897828083E0,2.583178253E0,-5.944139099E-1,-3.354524231E-1,2.671828234E0
5.907904083E0,2.076781311E0,-5.072950745E-1,-5.807922363E-2,2.138630894E0
5.917979083E0,1.442550201E0,-3.538641357E-1,2.871029663E-1,1.512811629E0
5.928055083E0,8.276289368E-1,-1.121168518E-1,4.010160828E-1,9.264738227E-1
5.938130083E0,2.649490356E-1,1.333726501E-1,3.339555359E-1,4.466682832E-1
5.948205083E0,-1.399589539E-1,2.219883728E-1,3.784130859E-1,4.605038654E-1
5.958281083E0,-5.677693176E-1,1.719923401E-1,5.111869812E-1,7.831063100E-1
5.968356083E0,-8.774752808E-1,1.190025330E-1,6.867718506E-1,1.120615923E0
5.978432083E0,-1.171014862E0,4.954696655E-2,9.190887451E-1,1.489447827E0
5.988507083E0,-1.431622925E0,3.607498169E-2,1.139280853E0,1.829974444E0
5.998582083E0,-1.782493286E0,1.113684082E-1,1.197958832E0,2.150532632E0
6.008658083E0,-2.186503143E0,2.418969727E-1,1.022373962E0,2.425810928E0
6.018733083E0,-2.466421051E0,3.936813354E-1,7.141648865E-1,2.597739263E0
6.028809083E0,-2.657274170E0,4.574487305E-1,2.966830444E-1,2.712634547E0
6.038884083E0,-2.825374603E0,4.323010254E-1,-1.240919495E-1,2.860948206E0
6.048960083E0,-3.030298462E0,3.101550293E-1,-3.415896606E-1,3.065222407E0
6.059035083E0,-3.105891266E0,4.370910645E-2,-3.357518005E-1,3.124291970E0
6.069110083E0,-3.171155548E0,-2.287243652E-1,-1.104702759E-1,3.181311998E0
6.079186083E0,-3.284020844E0,-5.031037903E-1,2.338137817E-1,3.330551787E0
6.089261083E0,-3.363804932E0,-9.315129089E-1,3.351530457E-1,3.506455116E0
6.099337083E0,-4.065395966E0,-1.436263275E0,2.817141724E-1,4.320840130E0
6.109412083E0,-5.605842590E0,-2.150727539E0,3.616479492E-1,6.015138347E0
6.119487083E0,-7.760611725E0,-3.533402252E0,1.477427673E-1,8.528414492E0
6.129563083E0,-1.021386017E1,-5.852529602E0,-1.812730408E-1,1.177318573E1
6.139638083E0,-1.360026810E1,-9.118288422E0,-3.115022278E-1,1.637704215E1
6.149714083E0,-1.757510239E1,-1.348815125E1,1.272354126E-2,2.215433614E1
6.159789083E0,-2.129471741E1,-1.879581390E1,7.583230591E-1,2.841342400E1
6.169865083E0,-2.443129486E1,-2.398821625E1,1.875599670E0,3.429053166E1
6.179940083E0,-2.547836746E1,-2.668111633E1,3.238665161E0,3.703401314E1
6.190015083E0,-2.509950531E1,-2.730382141E1,4.258943481E0,3.733125273E1
6.200091083E0,-2.468771164E1,-2.725981293E1,4.998106384E0,3.711551662E1
6.210166083E0,-2.368644379E1,-2.620510620E1,5.735622711E0,3.578620653E1
6.220242083E0,-2.224988113E1,-2.432935684E1,6.167774048E0,3.354126193E1
6.230317083E0,-2.066752167E1,-2.232173172E1,6.057752838E0,3.101777762E1
6.240392083E0,-1.930909653E1,-2.043026505E1,5.722300415E0,2.868765694E1
6.250468083E0,-1.800830154E1,-1.868953491E1,5.280419312E0,2.648547655E1
6.260543083E0,-1.686288345E1,-1.735805374E1,4.575834503E0,2.462919263E1
6.270619083E0,-1.564696198E1,-1.627490616E1,3.607198792E0,2.286289292E1
6.280694083E0,-1.425994629E1,-1.504596176E1,2.415826263E0,2.087015213E1
6.290770083E0,-1.259825180E1,-1.313772995E1,1.539099426E0,1.826703927E1
6.300845083E0,-1.100331848E1,-1.091859467E1,8.434959412E-1,1.552418154E1
6.310920083E0,-9.557325439E0,-8.856033783E0,4.447251892E-1,1.303723837E1
6.320996083E0,-7.849975891E0,-6.905739441E0,3.100053406E-1,1.045980220E1
6.331071083E0,-6.073170776E0,-5.133125610E0,2.131567383E-1,7.954735546E0
6.341147083E0,-4.484524384E0,-3.501668243E0,2.923420715E-1,5.697201359E0
6.351221583E0,-3.090922394E0,-1.898951111E0,3.649411011E-1,3.645956469E0
6.361296583E0,-2.229164429E0,-5.216651917E-1,2.395019531E-1,2.301883969E0
6.371372583E0,-1.726210327E0,4.837939453E-1,1.130149841E-1,1.796282567E0
6.381447583E0,-1.163979492E0,1.135239258E0,1.200503540E-1,1.630346134E0
6.391523583E0,-4.096980286E-1,1.517544250E0,2.070195007E-1,1.585449495E0
6.401598583E0,2.499801636E-1,1.606309662E0,1.472937012E-1,1.632303969E0
6.411673583E0,7.343728638E-1,1.514849854E0,-6.301895142E-2,1.684649806E0
6.421749583E0,9.023236084E-1,1.479074249E0,-2.731819153E-1,1.753988851E0
6.431824583E0,9.110055542E-1,1.428629150E0,-4.230203247E-1,1.746384426E0
6.441900583E0,8.009843445E-1,1.238374786E0,-5.855822754E-1,1.586837935E0
6.451975583E0,6.304888916E-1,8.690927124E-1,-7.247927856E-1,1.295439295E0
6.462051583E0,3.981719971E-1,4.093986511E-1,-8.765771484E-1,1.046200598E0
6.472126583E0,1.219963074E-1,-3.023712158E-2,-1.010548553E0,1.018334798E0
6.482201583E0,-1.203497314E-1,-2.305206299E-1,-9.861492920E-1,1.019859914E0
6.492277583E0,-4.734654236E-1,-2.755769348E-1,-7.496411133E-1,9.284793768E-1
6.502352583E0,-7.548802185E-1,-2.633024597E-1,-3.858975220E-1,8.877438972E-1
6.512428583E0,-9.481283569E-1,-2.197430420E-1,5.987548828E-4,9.732598544E-1
6.522503583E0,-1.040186920E0,-1.770817566E-1,3.481759644E-1,1.111113531E0
6.532578583E0,-1.218316498E0,-1.145118713E-1,6.658154297E-1,1.393096638E0
6.542654583E0,-1.528770905E0,-3.023712158E-2,9.635462952E-1,1.807339543E0
6.552729583E0,-1.878892822E0,7.828720093E-2,1.227297821E0,2.245579450E0
6.562805583E0,-2.210752716E0,1.137634277E-1,1.350491638E0,2.593105735E0
6.572880583E0,-2.316133575E0,2.978805542E-2,1.227896576E0,2.621658267E0
6.582955583E0,-2.299368439E0,-6.421646118E-2,9.114546204E-1,2.474261202E0
6.593031583E0,-2.239492950E0,-5.313949585E-2,5.333409119E-1,2.302738589E0
6.603106583E0,-2.285896454E0,2.245330811E-3,2.109114075E-1,2.295606948E0
6.613182583E0,-2.300715637E0,7.080276489E-2,-5.014572144E-2,2.302350987E0
6.623257583E0,-2.378853149E0,-9.729766846E-3,-2.962339783E-1,2.397246659E0
6.633333583E0,-2.718496857E0,-5.613327026E-1,-4.986131287E-1,2.820272082E0
6.643408583E0,-3.270698547E0,-1.535357208E0,-2.923420715E-1,3.624948914E0
6.653483583E0,-3.945046234E0,-2.749632111E0,-1.005908203E-1,4.809780145E0
6.663559583E0,-5.509143677E0,-4.812192993E0,-3.332070923E-1,7.322492227E0
6.673634583E0,-7.745044098E0,-7.753875732E0,-6.825805664E-1,1.098062900E1
6.683710583E0,-1.040680893E1,-1.103011276E1,-6.732998657E-1,1.517953861E1
6.693785583E0,-1.345177689E1,-1.440574310E1,-4.634362793E-1,1.971523545E1
6.703860583E0,-1.613389938E1,-1.737915985E1,-2.221380615E-1,2.371470539E1
6.713936583E0,-1.722632767E1,-1.929322952E1,3.046165466E-1,2.586634612E1
6.724011583E0,-1.745071106E1,-2.054238190E1,1.187779999E0,2.698013328E1
6.734087583E0,-1.830243988E1,-2.206606339E1,2.394570465E0,2.876846236E1
6.744162583E0,-1.912482971E1,-2.340757370E1,3.659290466E0,3.044772610E1
6.754237583E0,-1.910492111E1,-2.369782013E1,4.574187927E0,3.078161602E1
6.764313583E0,-1.865465744E1,-2.362896332E1,4.867727509E0,3.049621161E1
6.774388583E0,-1.826666428E1,-2.378957932E1,5.017565918E0,3.041037776E1
6.784464583E0,-1.787597672E1,-2.380215317E1,5.464536438E0,3.026473521E1
6.794539583E0,-1.752181320E1,-2.333707031E1,6.214327240E0,2.983706842E1
6.804615583E0,-1.739038651E1,-2.239103760E1,7.039261780E0,2.921190363E1
6.814690583E0,-1.701661377E1,-2.063982925E1,7.612569580E0,2.781220796E1
6.824765583E0,-1.626323044E1,-1.826905930E1,7.605085144E0,2.561422480E1
6.834841583E0,-1.552092407E1,-1.575413910E1,6.993457031E0,2.319483615E1
6.844916583E0,-1.459180618E1,-1.291738815E1,6.105353851E0,2.042192621E1
6.854992583E0,-1.327768890E1,-1.014814682E1,4.660857697E0,1.734951011E1
6.865067583E0,-1.199800003E1,-7.572003937E0,3.080294495E0,1.451810809E1
6.875142583E0,-1.093595856E1,-4.899910583E0,2.115999756E0,1.216888525E1
6.885218583E0,-1.000130219E1,-2.277813263E0,1.406026154E0,1.035332740E1
6.895293583E0,-8.718619537E0,1.957928467E-1,7.200027466E-1,8.750489440E0
6.905369583E0,-7.581284637E0,2.580034790E0,-9.548643494E-1,8.064999826E0
6.915444583E0,-6.540798340E0,3.890559540E0,-3.395988007E0,8.333740516E0
6.925520583E0,-4.866529999E0,3.902085571E0,-4.460574188E0,7.668514075E0
6.935595583E0,-3.443589020E0,3.520229645E0,-3.745960236E0,6.187288596E0
6.945670583E0,-1.136885834E0,3.074007568E0,-3.775897980E0,4.999943748E0
6.955746583E0,1.538650360E0,2.116748199E0,-5.064119110E0,5.700295627E0
6.965821583E0,3.626808014E0,8.622070313E-1,-5.810616760E0,6.903651532E0
6.975897583E0,3.766168213E0,2.426454163E-1,-4.675676880E0,6.008731488E0
6.985972583E0,2.642005920E0,6.792874146E-1,-3.035238190E0,4.080967721E0
6.996047583E0,1.752405853E0,1.325942688E0,-2.340233459E0,3.210255898E0
7.006123583E0,1.037941589E0,1.226549377E0,-2.209555206E0,2.732010309E0
7.016198583E0,6.840774536E-1,9.476792908E-1,-1.942660217E0,2.267153881E0
7.026274583E0,6.298901367E-1,8.488847351E-1,-1.454824677E0,1.798299674E0
7.036349583E0,7.502398682E-1,5.583389282E-1,-6.224057007E-1,1.123383761E0
7.046424583E0,9.292675781E-1,-3.053649902E-2,2.752775574E-1,9.696640878E-1
7.056500583E0,1.041534119E0,-6.595285034E-1,7.773335266E-1,1.457401310E0
7.066575583E0,1.114282837E0,-1.099164276E0,1.010847931E0,1.863223520E0
7.076651583E0,1.112785950E0,-1.433419189E0,1.299747162E0,2.232112414E0
7.086726583E0,7.213499451E-1,-1.320404205E0,1.545835419E0,2.157178748E0
7.096801583E0,2.415975952E-1,-8.818162537E-1,1.719773712E0,1.947714282E0
7.106877583E0,-3.604504395E-1,-5.367837524E-1,1.750908966E0,1.866478911E0
7.116952583E0,-1.097368011E0,-2.797682190E-1,1.586550751E0,1.949263988E0
7.127028583E0,-1.735041962E0,-1.701960754E-1,1.428329773E0,2.253766459E0
7.137103583E0,-1.970202942E0,-1.576222229E-1,1.338067474E0,2.386832412E0
7.147179583E0,-1.967358856E0,-2.142045593E-1,1.022823029E0,2.227678480E0
7.157254583E0,-2.051633606E0,-5.281018066E-1,5.926176453E-1,2.199838095E0
7.167329583E0,-2.517015839E0,-1.107846222E0,4.412823486E-1,2.785214910E0
7.177405583E0,-3.313808899E0,-2.051633606E0,3.896397400E-1,3.916931069E0
7.187480583E0,-4.285438385E0,-3.422333221E0,3.532653809E-2,5.484395572E0
7.197556583E0,-6.116879883E0,-5.534890137E0,-5.080435181E-1,8.264946252E0
7.207631583E0,-8.972641296E0,-8.306526489E0,-7.473957825E-1,1.225011325E1
7.217706583E0,-1.188453598E1,-1.136197266E1,-7.114704895E-1,1.645730258E1
7.227782583E0,-1.415336792E1,-1.472472977E1,-5.577401733E-1,2.043150910E1
7.237857583E0,-1.563857941E1,-1.835453156E1,2.176473999E-1,2.411433940E1
7.247933583E0,-1.704310867E1,-2.217069580E1,2.065255280E0,2.804055251E1
7.258008583E0,-1.862771347E1,-2.586935440E1,4.694387970E0,3.222192553E1
7.268083583E0,-1.995156052E1,-2.910981583E1,7.188651123E0,3.601559175E1
7.278159583E0,-2.041933777E1,-3.197006790E1,8.485404510E0,3.887205534E1
7.288234583E0,-1.920206909E1,-3.348401962E1,8.439450073E0,3.951105345E1
7.298310583E0,-1.759590912E1,-3.257451096E1,7.645950165E0,3.780443540E1
7.308385583E0,-1.699670517E1,-3.005495041E1,6.787934418E0,3.518897675E1
7.318461583E0,-1.759710663E1,-2.721879822E1,6.288423157E0,3.301613854E1
7.328536583E0,-1.820813599E1,-2.473336670E1,5.999823303E0,3.129334632E1
7.338611583E0,-1.780143173E1,-2.281241135E1,5.675597534E0,2.948744632E1
7.348687708E0,-1.666843781E1,-2.133842651E1,5.307512970E0,2.759229891E1
7.358762708E0,-1.542317734E1,-1.973630814E1,5.078638916E0,2.555755918E1
7.368838708E0,-1.398616562E1,-1.756432480E1,4.748575287E0,2.294923314E1
7.378913708E0,-1.234198471E1,-1.481095047E1,4.352199554E0,1.976437404E1
7.388988708E0,-1.066113007E1,-1.160985718E1,3.843706970E0,1.622413515E1
7.399064708E0,-8.968450012E0,-8.120014343E0,3.151696014E0,1.250203649E1
7.409139708E0,-7.189100189E0,-4.705914001E0,2.407294006E0,8.923219853E0
7.419215708E0,-5.214406586E0,-1.725910950E0,1.695973206E0,5.748489346E0
7.429290708E0,-3.037932587E0,5.721102905E-1,9.701325989E-1,3.239984853E0
7.439365708E0,-7.210505676E-1,2.303859100E0,1.565744019E-1,2.419131294E0
7.449441708E0,1.863025818E0,3.139870605E0,-1.356479187E0,3.894828418E0
7.459516708E0,3.438649292E0,3.399430847E0,-2.888243866E0,5.632263459E0
7.469592708E0,5.619164886E0,3.301384735E0,-4.654121704E0,8.008433307E0
7.479667708E0,6.851851501E0,2.339035950E0,-6.129004669E0,9.485971558E0
7.489743708E0,6.340215454E0,1.135688324E0,-5.516179047E0,8.480350892E0
7.499818708E0,4.868326263E0,1.072819061E0,-3.504063263E0,6.093439152E0
7.509893708E0,3.185675354E0,1.547931061E0,-2.385289764E0,4.270155183E0
7.519969708E0,1.709894257E0,1.554667053E0,-1.944755859E0,3.020397882E0
7.530044708E0,6.122268677E-1,7.964936829E-1,-1.719773712E0,1.991694140E0
7.540120708E0,9.984237671E-2,1.077758789E-2,-1.207987976E0,1.212154943E0
7.550195708E0,1.468446350E-1,-5.239105225E-2,-4.388873291E-1,4.657577233E-1
7.560270708E0,-1.757345581E-1,-1.405577087E-1,1.917512512E-1,2.956478424E-1
7.570346708E0,-3.466790771E-1,-4.864883423E-1,8.614585876E-1,1.048316836E0
7.580421708E0,-3.969744873E-1,-7.592211914E-1,1.472637634E0,1.703721563E0
7.590497708E0,-4.558021545E-1,-7.545808411E-1,1.808239746E0,2.011685569E0
7.600572708E0,-4.990621948E-1,-6.382727051E-1,1.908680878E0,2.073527867E0
7.610647708E0,-8.183482361E-1,-5.629792786E-1,1.837578735E0,2.088859764E0
7.620723708E0,-1.314416656E0,-3.664379883E-1,1.797312469E0,2.256612519E0
7.630798708E0,-1.714983673E0,1.609153748E-1,1.867965546E0,2.540936449E0
7.640874708E0,-1.822011108E0,8.860075378E-1,1.754800873E0,2.680309672E0
7.650949708E0,-1.814826050E0,1.398990784E0,1.293759613E0,2.631460192E0
7.661024708E0,-1.798809357E0,1.439257050E0,7.206015015E-1,2.413802494E0
7.671100708E0,-1.586550751E0,1.174457703E0,2.222877502E-1,1.986430473E0
7.681175708E0,-1.322200470E0,8.181985474E-1,-1.853146362E-1,1.565887755E0
7.691251708E0,-1.191522217E0,3.769161987E-1,-2.959346008E-1,1.284277346E0
7.701326708E0,-1.067879333E0,-1.068777466E-1,-1.995350647E-1,1.091605866E0
7.711401708E0,-1.031055908E0,-6.041436768E-1,-1.541793823E-1,1.204922051E0
7.721477708E0,-1.151106262E0,-1.143472137E0,-4.086502075E-2,1.623035460E0
7.731552708E0,-1.523831177E0,-1.760489044E0,2.998265076E-1,2.347611353E0
7.741628708E0,-1.996697845E0,-2.371219025E0,4.302053833E-1,3.129625955E0
7.751703708E0,-2.732118530E0,-3.022065582E0,3.914360046E-1,4.092746534E0
7.761779708E0,-4.355193329E0,-4.276307373E0,5.637277222E-1,6.129624999E0
7.771854708E0,-6.494394836E0,-6.375392303E0,6.188131714E-1,9.121717002E0
7.781929708E0,-9.367520142E0,-9.388775940E0,4.629872131E-1,1.327079140E1
7.792005708E0,-1.287667282E1,-1.315269882E1,1.466949463E-1,1.840716460E1
7.802080708E0,-1.604034393E1,-1.708666809E1,-3.281176758E-1,2.343831310E1
7.812156708E0,-1.793585220E1,-2.112167725E1,-3.570075989E-1,2.771186566E1
7.822231708E0,-1.888652527E1,-2.553749451E1,4.602928162E-1,3.176596184E1
7.832306708E0,-1.964694397E1,-3.014895493E1,2.325114899E0,3.606061633E1
7.842382708E0,-1.964903961E1,-3.304109070E1,4.759652252E0,3.873567763E1
7.852457708E0,-1.907603119E1,-3.327131195E1,6.216123505E0,3.885248198E1
7.862533708E0,-1.860930176E1,-3.174822922E1,6.257138214E0,3.732837994E1
7.872608708E0,-1.868384674E1,-2.941024109E1,5.446873169E0,3.526636978E1
7.882683708E0,-1.907902496E1,-2.736264908E1,4.232448578E0,3.362495173E1
7.892759708E0,-1.888472900E1,-2.537238785E1,3.428769836E0,3.181426594E1
7.902834708E0,-1.793001434E1,-2.351070923E1,3.168461151E0,2.973681235E1
7.912910708E0,-1.674163559E1,-2.229838028E1,3.402574310E0,2.809052576E1
7.922985708E0,-1.535147644E1,-2.080942657E1,4.173920288E0,2.619392437E1
7.933061708E0,-1.391641068E1,-1.848266510E1,4.625381470E0,2.359384558E1
7.943136708E0,-1.277862671E1,-1.548829193E1,4.542753296E0,2.058681848E1
7.953211708E0,-1.146510818E1,-1.203108124E1,4.188739471E0,1.713887860E1
7.963287708E0,-9.921368408E0,-8.509504395E0,3.358865204E0,1.349545077E1
7.973362708E0,-8.221054230E0,-5.456004181E0,2.064207458E0,1.008041005E1
7.983438708E0,-6.507118378E0,-2.870879974E0,9.406439209E-1,7.174214410E0
7.993513708E0,-4.834346924E0,-7.566764832E-1,4.911286926E-1,4.917791870E0
8.003588708E0,-3.451821899E0,8.319699097E-1,5.469625854E-1,3.592550128E0
8.013664708E0,-2.066602478E0,1.847907257E0,2.567161560E-1,2.784153411E0
8.023739708E0,-6.676116943E-1,2.316283264E0,-1.459465027E-1,2.414989424E0
8.033815708E0,4.288581848E-1,2.478695526E0,-4.114942932E-1,2.548956337E0
8.043890708E0,1.424437866E0,2.416125641E0,-8.910969543E-1,2.942913544E0
8.053965708E0,2.013612671E0,2.138153687E0,-1.489702148E0,3.293258214E0
8.064041708E0,2.031275940E0,1.644180908E0,-1.850601654E0,3.202208501E0
8.074116708E0,1.874701538E0,1.332828369E0,-1.976340179E0,3.032632161E0
8.084192708E0,1.463806000E0,1.287772064E0,-1.818867645E0,2.666339139E0
8.094267708E0,1.127754822E0,1.372046814E0,-1.424437866E0,2.276700822E0
8.104342708E0,1.017134857E0,1.346599731E0,-1.261426849E0,2.106915245E0
8.114418708E0,8.640032959E-1,8.660989380E-1,-1.080004120E0,1.631881725E0
8.124493708E0,6.554869080E-1,2.745291138E-1,-8.288264465E-1,1.091779556E0
8.134569708E0,4.920268250E-1,-1.152603149E-1,-7.354206848E-1,8.923109998E-1
8.144644708E0,2.362088013E-1,-4.351451111E-1,-5.072950745E-1,7.088682233E-1
8.154719708E0,-1.263372803E-1,-5.493576050E-1,-6.990463257E-2,5.680154436E-1
8.164795708E0,-4.111949158E-1,-4.239184570E-1,4.080514526E-1,7.178398881E-1
8.174870708E0,-7.435038757E-1,-1.423539734E-1,8.985813904E-1,1.174951566E0
8.184946708E0,-1.253942413E0,1.377136230E-1,1.452729034E0,1.923995391E0
8.195021708E0,-1.661245422E0,3.659889221E-1,1.949845276E0,2.587582046E0
8.205097708E0,-1.856589203E0,5.879772949E-1,2.202519836E0,2.940022857E0
8.215172708E0,-1.939067688E0,6.158193970E-1,2.068548431E0,2.901397877E0
8.225247708E0,-1.965263214E0,2.806663513E-1,1.559756470E0,2.524653114E0
8.235323708E0,-2.036964111E0,-1.908531189E-1,1.070723419E0,2.309133245E0
8.245398708E0,-2.113305359E0,-4.772076416E-1,6.605763245E-1,2.264982948E0
8.255474708E0,-2.078278198E0,-6.123765564E-1,1.386117554E-1,2.171050100E0
8.265549708E0,-1.979633331E0,-8.021818542E-1,-3.195854187E-1,2.159763574E0
8.275624708E0,-1.885329437E0,-1.015937347E0,-2.677931213E-1,2.158311594E0
8.285700708E0,-1.662891998E0,-1.157692566E0,1.137634277E-1,2.029385127E0
8.295775708E0,-1.440155182E0,-1.468446350E0,5.641767883E-1,2.132762781E0
8.305851708E0,-1.375489655E0,-2.101030884E0,1.096619568E0,2.740233027E0
8.315926708E0,-1.729054413E0,-3.247945862E0,1.340163116E0,3.915969696E0
8.326001708E0,-2.947221222E0,-4.729864197E0,7.870632935E-1,5.628249895E0
8.336077708E0,-5.501808929E0,-6.589297485E0,-8.310717773E-1,8.624350593E0
8.346152708E0,-8.868757324E0,-9.573491821E0,-2.587519226E0,1.330420452E1
8.356228458E0,-1.252699997E1,-1.432895279E1,-3.147205353E0,1.929117720E1
8.366303458E0,-1.570399338E1,-2.008672943E1,-1.868863678E0,2.556530381E1
8.376378458E0,-1.784124893E1,-2.504950928E1,-3.110531616E-1,3.075524073E1
8.386454458E0,-1.866932693E1,-2.797442688E1,1.704206085E0,3.367516363E1
8.396529458E0,-1.980351837E1,-2.944092728E1,4.193978577E0,3.572865790E1
8.406605458E0,-2.129277145E1,-3.007096710E1,5.911806335E0,3.731748428E1
8.416680458E0,-2.177686478E1,-2.970003845E1,6.489754486E0,3.739573554E1
8.426755458E0,-2.097543137E1,-2.864682861E1,6.164031830E0,3.603615960E1
8.436831458E0,-1.994302826E1,-2.762056274E1,4.971312103E0,3.442867709E1
8.446906458E0,-1.919248901E1,-2.673006454E1,3.468736725E0,3.308897278E1
8.456982458E0,-1.824974945E1,-2.531790115E1,2.418071594E0,3.130329925E1
8.467057458E0,-1.706077194E1,-2.312585953E1,2.211351471E0,2.882300112E1
8.477133458E0,-1.578272964E1,-2.062950073E1,2.587968292E0,2.610303498E1
8.487208458E0,-1.467428467E1,-1.813463882E1,3.188070374E0,2.354492617E1
8.497283458E0,-1.363888779E1,-1.565729050E1,3.446882172E0,2.104877675E1
8.507359458E0,-1.233524872E1,-1.297726364E1,3.325334930E0,1.821058991E1
8.517434458E0,-1.095227463E1,-1.008123596E1,2.977308655E0,1.518051399E1
8.527510458E0,-9.563163300E0,-7.253166962E0,2.381098480E0,1.223650903E1
8.537585458E0,-8.249794464E0,-4.620890808E0,1.683549042E0,9.604482180E0
8.547660458E0,-6.873556366E0,-2.204914856E0,1.170116730E0,7.312769639E0
8.557736458E0,-5.560337219E0,-1.311273193E-1,4.239184570E-1,5.578014990E0
8.567811458E0,-4.197122040E0,1.361418915E0,-3.086581421E-1,4.423184908E0
8.577887458E0,-2.734214172E0,2.091600494E0,-8.071215820E-1,3.535840072E0
8.587962458E0,-1.191671906E0,2.221530304E0,-1.394350433E0,2.880883884E0
8.598037458E0,1.930984497E-1,2.124232635E0,-2.016456757E0,2.935259640E0
8.608113458E0,7.538323975E-1,2.189796295E0,-2.109712830E0,3.132787787E0
8.618188458E0,1.287023621E0,2.089355164E0,-1.940564575E0,3.128518127E0
8.628264458E0,2.044598236E0,1.792971497E0,-1.890418854E0,3.311919712E0
8.638339458E0,2.512076111E0,1.396595764E0,-1.845512238E0,3.415687564E0
8.648414458E0,2.741099854E0,8.036787415E-1,-1.599873047E0,3.274006978E0
8.658490458E0,2.750230865E0,2.793191528E-1,-1.294807434E0,3.052591570E0
8.668565458E0,2.532882843E0,-2.874023438E-2,-9.868977356E-1,2.718508532E0
8.678641458E0,2.066752167E0,-4.221221924E-1,-6.309379578E-1,2.201757110E0
8.688716458E0,1.458566895E0,-8.984317017E-1,-2.308200073E-1,1.728547015E0
8.698791458E0,8.942404175E-1,-1.118773499E0,2.375559998E-1,1.451810221E0
8.708867458E0,3.992198181E-1,-9.659413147E-1,7.764353943E-1,1.302025733E0
8.718942458E0,-1.242416382E-1,-6.409671021E-1,1.216071167E0,1.380255010E0
8.729018458E0,-6.900650024E-1,-3.459306335E-1,1.556613007E0,1.737498709E0
8.739093458E0,-1.192270660E0,-1.422042847E-2,1.913021851E0,2.254188135E0
8.749168458E0,-1.605710907E0,3.221301270E-1,2.117496643E0,2.676913777E0
8.759244458E0,-1.961970062E0,5.938151550E-1,1.982028351E0,2.851382007E0
8.769319458E0,-2.257605286E0,5.453160095E-1,1.518292694E0,2.774772762E0
8.779395458E0,-2.406994629E0,1.420545959E-1,7.761360168E-1,2.533019891E0
8.789470458E0,-2.375859375E0,-2.604583740E-1,-4.191284180E-3,2.390097048E0
8.799545458E0,-2.254012756E0,-5.785469055E-1,-6.520440674E-1,2.416702608E0
8.809621458E0,-1.972897339E0,-7.671546936E-1,-8.864566040E-1,2.294919507E0
8.819696458E0,-1.723815308E0,-8.147557068E-1,-7.596702576E-1,2.052429043E0
8.829772458E0,-1.514400787E0,-7.788304138E-1,-4.023632813E-1,1.749823639E0
8.839847458E0,-1.123713226E0,-6.825805664E-1,-1.544787598E-1,1.323824509E0
8.849923458E0,-8.125103760E-1,-8.741821289E-1,-6.077362061E-2,1.195015037E0
8.859998458E0,-9.988728333E-1,-1.644480286E0,-1.005908203E-1,1.926702068E0
8.870073458E0,-1.623972931E0,-2.871628418E0,-3.944297791E-1,3.322516020E0
8.880149458E0,-2.991379395E0,-4.850662994E0,-9.708810425E-1,5.780994047E0
8.890224458E0,-5.579197998E0,-8.226742401E0,-1.204844513E0,1.001291122E1
8.900300458E0,-9.371112671E0,-1.222103622E1,-1.440304871E0,1.546757761E1
8.910375458E0,-1.371822281E1,-1.638792114E1,-1.446142731E0,2.142066584E1
8.920450458E0,-1.678908691E1,-2.041110489E1,1.133143616E-1,2.642914078E1
8.930526458E0,-1.838776245E1,-2.349858444E1,1.978435822E0,2.990330228E1
8.940601458E0,-1.960772552E1,-2.568224350E1,2.134261780E0,3.238202595E1
8.950677458E0,-2.030976562E1,-2.793880096E1,2.411185913E0,3.462480320E1
8.960752458E0,-2.032248917E1,-2.917298447E1,3.314407654E0,3.570786869E1
8.970827458E0,-1.966864883E1,-2.893527878E1,3.951033783E0,3.520961194E1
8.980903458E0,-1.885030060E1,-2.757131516E1,4.380939789E0,3.368536604E1
8.990978458E0,-1.850691467E1,-2.573268860E1,4.563410339E0,3.202345808E1
9.001054458E0,-1.821577011E1,-2.418864944E1,4.088597717E0,3.055522335E1
9.011129458E0,-1.763587601E1,-2.294323929E1,3.541784821E0,2.915408361E1
9.021204458E0,-1.674732376E1,-2.157283905E1,3.466341705E0,2.752954345E1
9.031280458E0,-1.551553528E1,-2.009825546E1,3.522624664E0,2.563358329E1
9.041355458E0,-1.428644119E1,-1.832833603E1,3.678300934E0,2.352786011E1
9.051431458E0,-1.289224045E1,-1.573902054E1,3.823349304E0,2.070131955E1
9.061506458E0,-1.164772842E1,-1.289688080E1,3.407364349E0,1.770901588E1
9.071581458E0,-1.072819061E1,-1.031460068E1,2.958298187E0,1.517354900E1
9.081657458E0,-9.526040497E0,-7.696694641E0,2.595602417E0,1.251885410E1
9.091732458E0,-7.977810059E0,-5.001249847E0,2.092348938E0,9.645510741E0
9.101808458E0,-6.347550201E0,-2.373913422E0,1.734592896E0,6.995403563E0
9.111883458E0,-4.886887665E0,-5.553451538E-2,1.542093201E0,5.124725024E0
9.121959458E0,-3.580404510E0,1.631607056E0,1.211730194E0,4.117004749E0
9.132034458E0,-2.467768250E0,2.592159576E0,7.511380005E-1,3.656963180E0
9.142109458E0,-1.584305420E0,3.042872314E0,4.561015320E-1,3.460798202E0
9.152185458E0,-7.066804504E-1,3.171754303E0,1.492396545E-1,3.252951751E0
9.162260458E0,4.198768616E-1,3.174149323E0,-6.718029785E-1,3.271519485E0
9.172336458E0,1.480870514E0,2.830613708E0,-1.656455383E0,3.598499115E0
9.182411458E0,2.246378632E0,2.111359406E0,-2.314636688E0,3.855074382E0
9.192486458E0,2.705623627E0,1.493893433E0,-2.756966858E0,4.141615995E0
9.202562458E0,2.880160675E0,9.681866455E-1,-2.948269043E0,4.233792773E0
9.212637458E0,2.634521484E0,3.962260437E-1,-2.821782074E0,3.880741244E0
9.222713458E0,2.264790344E0,-1.532812500E-1,-2.349963226E0,3.267276788E0
9.232788458E0,1.842817841E0,-4.382885742E-1,-1.540596313E0,2.441620664E0
9.242863458E0,1.280437317E0,-3.903881836E-1,-6.339317322E-1,1.481145536E0
9.252939458E0,6.541397095E-1,-2.995271301E-1,2.215393066E-1,7.527914224E-1
9.263014458E0,8.382568359E-2,-3.378474426E-1,1.119671631E0,1.172532388E0
9.273090458E0,-1.764830017E-1,-1.713935852E-1,1.794468384E0,1.811253376E0
9.283165458E0,-1.221459961E-1,2.323168945E-1,2.184856567E0,2.200565610E0
9.293240458E0,7.738906860E-2,5.043013000E-1,2.442321167E0,2.495043397E0
9.303316458E0,2.788700867E-1,6.234535217E-1,2.709665222E0,2.794413791E0
9.313391458E0,3.867956543E-1,5.234614563E-1,2.934497681E0,3.005810941E0
9.323467458E0,3.481759644E-1,7.873626709E-2,2.981050873E0,3.002347450E0
9.333542458E0,2.031275940E-1,-5.330415344E-1,2.728376312E0,2.787369979E0
9.343617458E0,-8.337661743E-2,-1.076710968E0,2.024839325E0,2.294827327E0
9.353694083E0,-5.915698242E-1,-1.573527832E0,1.137634277E0,2.029816850E0
9.363769083E0,-1.407672729E0,-2.010319519E0,6.927593994E-1,2.550067189E0
9.373845083E0,-2.507286072E0,-2.217488708E0,4.671784973E-1,3.379644266E0
9.383920083E0,-3.869902496E0,-2.138752441E0,-1.285826111E-1,4.423453495E0
9.393995083E0,-5.140759735E0,-2.471660156E0,-1.020428009E0,5.794634406E0
9.404071083E0,-6.801556091E0,-3.670068054E0,-2.196981354E0,8.034755245E0
9.414146083E0,-8.892108765E0,-5.754034424E0,-3.560944977E0,1.117402522E1
9.424222083E0,-1.095721436E1,-8.628057861E0,-4.008214874E0,1.451102048E1
9.434297083E0,-1.241593094E1,-1.138487503E1,-3.426374817E0,1.719042655E1
9.444372083E0,-1.426728104E1,-1.359293335E1,-2.783910828E0,1.990159051E1
9.454448083E0,-1.596295486E1,-1.636172562E1,-2.045945435E0,2.295011734E1
9.464523083E0,-1.683953201E1,-2.007220963E1,-8.747808838E-1,2.621504681E1
9.474599083E0,-1.711735428E1,-2.429223404E1,9.816586304E-1,2.973348459E1
9.484674083E0,-1.696661774E1,-2.767504944E1,2.978206787E0,3.259822379E1
9.494749083E0,-1.700284241E1,-2.988550278E1,3.619323578E0,3.457368117E1
9.504825083E0,-1.671379349E1,-3.103181900E1,3.330424347E0,3.540362142E1
9.514900083E0,-1.624017838E1,-3.085743164E1,2.695594482E0,3.497414346E1
9.524976083E0,-1.636142624E1,-2.934482712E1,2.428250427E0,3.368547977E1
9.535051083E0,-1.706032288E1,-2.677137863E1,2.961291962E0,3.188307671E1
9.545126083E0,-1.754127274E1,-2.391816193E1,3.715124359E0,2.989275611E1
9.555202083E0,-1.734697678E1,-2.133857620E1,4.142934723E0,2.781036400E1
9.565277083E0,-1.635588776E1,-1.915461777E1,4.553979950E0,2.559596022E1
9.575353083E0,-1.484313354E1,-1.711465988E1,4.936434631E0,2.318617224E1
9.585428083E0,-1.320987991E1,-1.478580276E1,4.950056305E0,2.043584958E1
9.595504083E0,-1.165251846E1,-1.210607529E1,4.680616608E0,1.744266084E1
9.605579083E0,-1.005743546E1,-9.037755890E0,3.851041718E0,1.405928738E1
9.615654083E0,-8.471333771E0,-5.869743805E0,2.507435760E0,1.060681961E1
9.625730083E0,-7.033573608E0,-2.697989502E0,1.351539459E0,7.653558909E0
9.635805083E0,-5.584736481E0,2.103126526E-1,3.613485718E-1,5.600364788E0
9.645881083E0,-4.360582123E0,2.403102722E0,-1.868115234E-1,4.982416852E0
9.655956083E0,-3.262315979E0,3.590583344E0,-4.698728943E-1,4.873989621E0
9.666031083E0,-2.179916840E0,3.892804871E0,-8.319699097E-1,4.538517502E0
9.676107083E0,-1.124910736E0,3.597169647E0,-1.148411865E0,3.940038508E0
9.686182083E0,-3.577560425E-2,2.953807526E0,-1.433119812E0,3.283304919E0
9.696258083E0,1.106349335E0,2.240091705E0,-1.853146362E0,3.110654455E0
9.706333083E0,2.039209442E0,1.542392578E0,-1.950743408E0,3.216014592E0
9.716408083E0,2.236050110E0,9.217831421E-1,-1.348246307E0,2.769002051E0
9.726484083E0,1.991458740E0,4.216731262E-1,-4.540058899E-1,2.085626402E0
9.736559083E0,1.351689148E0,1.652563477E-1,3.616479492E-1,1.408957931E0
9.746635083E0,7.098239136E-1,4.595443726E-2,8.411009216E-1,1.101550071E0
9.756710083E0,2.471360779E-1,2.067201233E-1,8.421487427E-1,9.016784101E-1
9.766785083E0,9.654922485E-2,6.280938721E-1,3.974235535E-1,7.495126055E-1
9.776861083E0,1.062789917E-1,7.511380005E-1,-2.924917603E-1,8.130528579E-1
9.786936083E0,8.681945801E-2,6.298901367E-1,-8.068222046E-1,1.027259107E0
9.797012083E0,9.445358276E-2,4.552033997E-1,-9.045689392E-1,1.017043057E0
9.807087083E0,8.876541138E-2,2.998265076E-1,-5.993536377E-1,6.760177630E-1
9.817162083E0,3.757186890E-2,2.689906311E-1,-8.562194824E-2,2.847783752E-1
9.827238083E0,-1.264869690E-1,4.090992737E-1,5.295986938E-1,6.810550239E-1
9.837313083E0,-3.339555359E-1,3.638932800E-1,1.075064392E0,1.183092586E0
9.847389083E0,-5.373825073E-1,-7.514373779E-2,1.414109344E0,1.514639158E0
9.857464083E0,-5.815406799E-1,-5.454656982E-1,1.520687714E0,1.717036258E0
9.867539083E0,-6.200106812E-1,-8.553213501E-1,1.435065765E0,1.781965658E0
9.877615083E0,-8.065228271E-1,-1.216819611E0,1.196611633E0,1.887593292E0
9.887690083E0,-1.265019379E0,-1.775158539E0,9.503736877E-1,2.377955427E0
9.897766083E0,-2.436333618E0,-2.567610626E0,7.517367554E-1,3.618487802E0
9.907841083E0,-4.404590607E0,-3.426374817E0,6.248007202E-1,5.615232741E0
9.917916083E0,-6.789730682E0,-4.332590332E0,1.556762695E-1,8.055806404E0
9.927992083E0,-9.511520691E0,-6.246510315E0,-8.535250854E-1,1.141124104E1
9.938067083E0,-1.217822525E1,-9.443861389E0,-1.532363434E0,1.548689207E1
9.948143083E0,-1.477307922E1,-1.331406326E1,-1.325643311E0,1.993151977E1
9.958218083E0,-1.668804703E1,-1.738365051E1,-4.843927002E-1,2.410221681E1
9.968293083E0,-1.716076401E1,-1.949021988E1,1.390159149E0,2.600563467E1
9.978369083E0,-1.714609451E1,-1.977043716E1,3.156336365E0,2.635946134E1
9.988444083E0,-1.752241196E1,-2.016337006E1,3.908222809E0,2.699760394E1
9.998520083E0,-1.797626816E1,-2.117197266E1,3.757186890E0,2.802704223E1
1.000859508E1,-1.779574356E1,-2.270508453E1,2.736609192E0,2.897754963E1
1.001867008E1,-1.783765640E1,-2.442800171E1,1.618284760E0,3.029072629E1
1.002874608E1,-1.758438309E1,-2.563449280E1,8.161029053E-1,3.109668428E1
1.003882108E1,-1.700688400E1,-2.595303040E1,6.732998657E-1,3.103622437E1
1.004889708E1,-1.648866165E1,-2.506971725E1,2.174228668E0,3.008477948E1
1.005897208E1,-1.615680176E1,-2.283067337E1,4.627327423E0,2.834949821E1
1.006904708E1,-1.561418015E1,-1.946986221E1,6.980883179E0,2.591545651E1
1.007912308E1,-1.443223801E1,-1.562181427E1,8.294401703E0,2.282822101E1
1.008919808E1,-1.288101379E1,-1.202644089E1,8.359815674E0,1.950493053E1
1.009927408E1,-1.106828339E1,-8.847800903E0,7.677085419E0,1.611608260E1
1.010934908E1,-9.075327759E0,-6.029311981E0,6.409970398E0,1.264127752E1
1.011942508E1,-6.968758392E0,-3.513493652E0,4.726271667E0,9.123917747E0
1.012950008E1,-4.840633850E0,-1.160985718E0,2.860701141E0,5.741361766E0
1.013957508E1,-3.041674805E0,8.470884705E-1,9.840536499E-1,3.307220295E0
1.014965108E1,-1.470092926E0,2.256407776E0,-6.950047302E-1,2.781291218E0
1.015972608E1,-2.246827698E-1,2.968776398E0,-1.929487610E0,3.547821597E0
1.016980208E1,9.048683167E-1,3.125201111E0,-2.798730011E0,4.291684789E0
1.017987708E1,1.931134186E0,2.958597565E0,-3.338956604E0,4.861194297E0
1.018995208E1,2.432890778E0,2.560425568E0,-3.271297302E0,4.814158562E0
1.020002808E1,2.439327393E0,2.017205200E0,-2.725681915E0,4.177173309E0
1.021010308E1,2.031425629E0,1.475032654E0,-1.866318970E0,3.128187640E0
1.022017808E1,1.563199310E0,1.064586182E0,-9.623487854E-1,2.122039351E0
1.023025408E1,1.016685791E0,7.577243042E-1,-2.224374390E-1,1.287351752E0
1.024032908E1,4.320016479E-1,5.637277222E-1,4.754113770E-1,8.546521783E-1
1.025040508E1,3.203338623E-2,6.251000977E-1,9.250762939E-1,1.116934385E0
1.026048008E1,-3.376977539E-1,7.701484680E-1,1.125509491E0,1.404969768E0
1.027055608E1,-7.607180786E-1,7.982899475E-1,1.233285370E0,1.654373488E0
1.028063108E1,-1.105301514E0,8.490344238E-1,1.189127197E0,1.832095625E0
1.029070608E1,-1.375489655E0,8.818162537E-1,1.074166260E0,1.955352871E0
1.030078208E1,-1.718576202E0,7.731422424E-1,9.737251282E-1,2.121177436E0
1.031085708E1,-2.228865051E0,6.424639893E-1,7.147636414E-1,2.427238443E0
1.032093208E1,-2.379302216E0,5.589376831E-1,6.376739502E-2,2.444904220E0
1.033100808E1,-2.456092529E0,2.136058044E-1,-6.289920044E-1,2.544336631E0
1.034108308E1,-2.467319183E0,-1.556762695E-1,-1.140927429E0,2.722795338E0
1.035115908E1,-2.282453613E0,-2.802172852E-1,-1.346300354E0,2.664702773E0
1.036123375E1,-2.183659058E0,-2.713856506E-1,-1.285826111E0,2.548600761E0
1.037130875E1,-2.179467773E0,-2.814147949E-1,-1.093925171E0,2.454780304E0
1.038138475E1,-2.273771667E0,-6.050418091E-1,-7.376660156E-1,2.465819202E0
1.039145975E1,-2.777324524E0,-1.310375061E0,-1.336720276E-1,3.073838402E0
1.040153575E1,-3.778442688E0,-2.309397583E0,3.785627747E-1,4.444463535E0
1.041161075E1,-5.671555939E0,-3.827241211E0,6.619235229E-1,6.874042828E0
1.042168675E1,-8.259524231E0,-6.014492798E0,3.143463135E-2,1.021737991E1
1.043176175E1,-1.153396500E1,-9.694739685E0,-1.199755096E0,1.511488466E1
1.044183675E1,-1.455288712E1,-1.536569687E1,-1.923350372E0,2.125065741E1
1.045191275E1,-1.588811050E1,-2.178270264E1,-7.183561707E-1,2.697098858E1
1.046198775E1,-1.556104065E1,-2.592414047E1,1.117575989E0,3.025650379E1
1.047206375E1,-1.511047760E1,-2.742896118E1,3.685935059E0,3.153189753E1
1.048213875E1,-1.596325424E1,-2.909035629E1,5.256768494E0,3.359624875E1
1.049221375E1,-1.734353394E1,-3.109573608E1,5.873486023E0,3.608657382E1
1.050228975E1,-1.787747360E1,-3.179867432E1,6.600075073E0,3.707183219E1
1.051236475E1,-1.753019577E1,-3.110307083E1,5.935756531E0,3.619312068E1
1.052244075E1,-1.722213638E1,-2.980811371E1,4.521497498E0,3.472131282E1
1.053251575E1,-1.654659119E1,-2.791440170E1,4.071233826E0,3.270441021E1
1.054259075E1,-1.556568100E1,-2.565784424E1,4.581073608E0,3.035789241E1
1.055266675E1,-1.448148560E1,-2.317241272E1,5.362598419E0,2.784657247E1
1.056274175E1,-1.346494949E1,-2.034314621E1,5.833519135E0,2.508342895E1
1.057281775E1,-1.261726227E1,-1.738140518E1,5.771697693E0,2.224007751E1
1.058289275E1,-1.176927567E1,-1.431293610E1,5.054239655E0,1.920732485E1
1.059296775E1,-1.101858673E1,-1.133592682E1,3.844305725E0,1.626933240E1
1.060304375E1,-1.040800644E1,-8.371940460E0,2.498903503E0,1.358898465E1
1.061311875E1,-9.694739685E0,-5.504203949E0,1.132694550E0,1.120567872E1
1.062319475E1,-8.931177521E0,-2.903063049E0,1.034349060E-1,9.391720064E0
1.063326975E1,-7.972121887E0,-4.552033997E-1,-5.176235962E-1,8.001866764E0
1.064334475E1,-6.534212036E0,1.709894257E0,-1.060095520E0,6.836919468E0
1.065342075E1,-4.996310120E0,3.316802673E0,-1.404828644E0,6.159369960E0
1.066349575E1,-3.578308868E0,4.194128265E0,-1.537303162E0,5.723487335E0
1.067357175E1,-2.307751007E0,4.306544495E0,-1.584006042E0,5.136254991E0
1.068364675E1,-1.459315338E0,3.695964203E0,-1.501826935E0,4.247968548E0
1.069372175E1,-9.373507690E-1,2.753524017E0,-1.229094086E0,3.157719628E0
1.070379775E1,-5.132826233E-1,1.974394226E0,-1.045276337E0,2.292224734E0
1.071387275E1,-1.980381775E-1,1.541344757E0,-8.973838806E-1,1.794508459E0
1.072394875E1,-1.706451416E-2,1.231189728E0,-7.238946533E-1,1.428335679E0
1.073402375E1,-2.110610962E-2,9.710307312E-1,-4.284091187E-1,1.061546288E0
1.074409875E1,1.646575928E-2,9.581575012E-1,-1.178050232E-1,9.655127870E-1
1.075417475E1,2.062710571E-1,1.066232758E0,8.367599487E-2,1.089220691E0
1.076424975E1,3.420387268E-1,9.147477722E-1,1.371148682E-1,9.861817604E-1
1.077432575E1,2.037263489E-1,6.414161682E-1,1.841171265E-1,6.977236146E-1
1.078440075E1,-7.574249268E-2,3.573069763E-1,3.309617615E-1,4.928903408E-1
1.079447575E1,-4.041595459E-1,2.104623413E-1,5.866300964E-1,7.428150548E-1
1.080455175E1,-7.924520874E-1,2.094145203E-1,9.138496399E-1,1.227581328E0
1.081462675E1,-1.147364044E0,3.628454590E-1,1.189276886E0,1.691886695E0
1.082470275E1,-1.474882965E0,4.968168640E-1,1.236129456E0,1.987491582E0
1.083477775E1,-1.782942352E0,5.182223511E-1,1.208586731E0,2.215427661E0
1.084485275E1,-1.951491852E0,5.231620789E-1,1.136287079E0,2.318009347E0
1.085492875E1,-1.985321503E0,6.463558960E-1,8.851094055E-1,2.267751325E0
1.086500375E1,-2.021845551E0,7.680528259E-1,5.242098999E-1,2.225434922E0
1.087507975E1,-1.849553833E0,7.331753540E-1,9.250762939E-2,1.991721151E0
1.088515475E1,-1.635798340E0,4.805007935E-1,-2.113604736E-1,1.717961138E0
1.089522975E1,-1.490300903E0,-1.990859985E-2,-1.172062683E-1,1.495035265E0
1.090530575E1,-1.593286743E0,-7.337741089E-1,5.914201355E-1,1.851152307E0
1.091538075E1,-1.844913483E0,-1.540596313E0,1.493743744E0,2.829913980E0
1.092545675E1,-1.978735199E0,-2.415227509E0,2.067500610E0,3.744766439E0
1.093553175E1,-2.426454163E0,-3.712579651E0,1.987566833E0,4.860179975E0
1.094560675E1,-3.353177032E0,-5.796695709E0,1.390608215E0,6.839537160E0
1.095568275E1,-5.199437714E0,-8.843609619E0,2.995271301E-1,1.026320126E1
1.096575775E1,-7.951614532E0,-1.312889832E1,-8.822653198E-1,1.537447680E1
1.097583375E1,-1.046863037E1,-1.820963287E1,-1.758992157E0,2.107787951E1
1.098590875E1,-1.272578659E1,-2.285627014E1,-2.128423920E0,2.624661726E1
1.099598375E1,-1.401370834E1,-2.601724686E1,-1.741628265E0,2.960260841E1
1.100605975E1,-1.400158356E1,-2.801424408E1,-7.779322815E-1,3.132806078E1
1.101613475E1,-1.382345398E1,-3.013263885E1,5.041516113E-1,3.315596437E1
1.102621075E1,-1.438269104E1,-3.290547272E1,2.640808411E0,3.600841298E1
1.103628575E1,-1.458911179E1,-3.504302765E1,5.396278381E0,3.834026330E1
1.104636075E1,-1.414603317E1,-3.492686920E1,7.178023224E0,3.836040229E1
1.105643675E1,-1.441262878E1,-3.311922821E1,7.398514709E0,3.686929842E1
1.106651175E1,-1.523127640E1,-3.066163879E1,6.878945160E0,3.492059222E1
1.107658775E1,-1.524699371E1,-2.772818893E1,6.463409271E0,3.229704225E1
1.108666275E1,-1.441367661E1,-2.470417740E1,5.906866608E0,2.920516268E1
1.109673775E1,-1.331615891E1,-2.160262711E1,5.442532196E0,2.595408913E1
1.110681375E1,-1.252146149E1,-1.829690140E1,5.270988922E0,2.278918434E1
1.111688875E1,-1.203736816E1,-1.482247650E1,5.103187866E0,1.976478101E1
1.112696475E1,-1.158231445E1,-1.117441269E1,4.520000610E0,1.671669562E1
1.113703975E1,-1.094224548E1,-7.467521210E0,3.812871094E0,1.378530360E1
1.114711475E1,-9.920619965E0,-3.769311676E0,2.997366943E0,1.102772051E1
1.115719075E1,-8.519084473E0,-4.695735168E-1,1.684297485E0,8.696675086E0
1.116726575E1,-6.896309052E0,2.056273956E0,2.999761963E-1,7.202591675E0
1.117734175E1,-5.414989471E0,3.726051636E0,-7.279362488E-1,6.613279289E0
1.118741675E1,-4.263434143E0,4.627776489E0,-1.410965881E0,6.448566557E0
1.119749175E1,-3.384461975E0,4.916675720E0,-1.832339630E0,6.243857103E0
1.120756775E1,-2.726879425E0,4.678670654E0,-1.880389709E0,5.732512185E0
1.121764275E1,-2.189347229E0,4.072581024E0,-1.655856628E0,4.911315370E0
1.122771875E1,-1.742376709E0,3.443888397E0,-1.263223114E0,4.061031461E0
1.123779375E1,-1.439257050E0,2.891686707E0,-9.975256348E-1,3.380587265E0
1.124786875E1,-1.109492798E0,2.300116882E0,-8.527766418E-1,2.692348406E0
1.125794475E1,-6.900650024E-1,1.776505737E0,-8.414002991E-1,2.083294700E0
1.126801975E1,-3.574566650E-1,1.189576263E0,-9.810598755E-1,1.582828302E0
1.127809575E1,-2.739303589E-1,5.855822754E-1,-8.223898315E-1,1.046073362E0
1.128817075E1,-3.285667419E-1,2.281256104E-1,-3.811074829E-1,5.524855759E-1
1.129824575E1,-4.291575623E-1,1.113684082E-1,5.343887329E-2,4.465812902E-1
1.130832175E1,-6.221063232E-1,2.094145203E-1,3.339555359E-1,7.364760815E-1
1.131839675E1,-9.032217407E-1,3.335064697E-1,4.414320374E-1,1.059197017E0
1.132847275E1,-1.049317932E0,5.236111450E-1,4.534071350E-1,1.257304571E0
1.133854775E1,-1.084345093E0,6.888674927E-1,3.457809448E-1,1.330378579E0
1.134862275E1,-1.115480347E0,6.021977234E-1,2.971321106E-1,1.302008446E0
1.135869933E1,-1.198707275E0,4.682263184E-1,3.851490784E-1,1.343307422E0
1.136877433E1,-1.331481171E0,4.257147217E-1,5.035528564E-1,1.485813115E0
1.137885033E1,-1.464853821E0,4.138893127E-1,6.158193970E-1,1.642051951E0
1.138892533E1,-1.518292694E0,4.830455017E-1,8.038284302E-1,1.784568801E0
1.139900033E1,-1.546883240E0,5.812413025E-1,9.208850098E-1,1.891750092E0
1.140907633E1,-1.609453125E0,4.745132446E-1,9.508227539E-1,1.928617663E0
1.141915133E1,-1.733245697E0,1.146615601E-1,9.650431824E-1,1.987107512E0
1.142922733E1,-1.891915741E0,-4.667294312E-1,9.577084351E-1,2.171263913E0
1.143930233E1,-2.033670959E0,-1.083297272E0,8.565188599E-1,2.458246348E0
1.144937733E1,-2.420316925E0,-1.796414337E0,9.318122864E-1,3.154887102E0
1.145945333E1,-2.975362701E0,-3.071612549E0,1.093326416E0,4.413949423E0
1.146952833E1,-3.800895996E0,-4.830904083E0,1.302142181E0,6.283312733E0
1.147960433E1,-4.965324554E0,-7.160659332E0,9.891430664E-1,8.769714591E0
1.148967933E1,-6.435716858E0,-1.056652679E1,-1.929487610E-1,1.237364818E1
1.149975433E1,-8.793314209E0,-1.491228973E1,-1.319206696E0,1.736200064E1
1.150983033E1,-1.118354370E1,-1.926404022E1,-1.783840485E0,2.234629684E1
1.151990533E1,-1.338366852E1,-2.296195038E1,-1.397194519E0,2.661439274E1
1.152998133E1,-1.571986038E1,-2.626752640E1,1.290316772E-1,3.061231129E1
1.154005633E1,-1.774499908E1,-2.971964767E1,2.343975677E0,3.469346729E1
1.155013133E1,-1.907603119E1,-3.251104294E1,4.734205170E0,3.799046693E1
1.156020733E1,-1.944381638E1,-3.393622925E1,6.604416046E0,3.966545048E1
1.157028233E1,-1.828537537E1,-3.301190140E1,7.667804718E0,3.850890566E1
1.158035833E1,-1.715597397E1,-3.099544464E1,6.984625397E0,3.610858656E1
1.159043333E1,-1.652563477E1,-2.914244797E1,5.558690643E0,3.395994581E1
1.160050833E1,-1.569665863E1,-2.692795303E1,4.781506805E0,3.153351477E1
1.161058433E1,-1.467877533E1,-2.450643860E1,4.431235199E0,2.890791973E1
1.162065933E1,-1.390308838E1,-2.227353195E1,4.067192230E0,2.656968469E1
1.163073533E1,-1.292756699E1,-1.947016159E1,3.560645599E0,2.364079901E1
1.164081033E1,-1.152348679E1,-1.610530884E1,2.838547211E0,2.000572595E1
1.165088533E1,-1.021356079E1,-1.299822006E1,2.223925323E0,1.667981992E1
1.166096133E1,-9.142238617E0,-1.013452515E1,2.101330261E0,1.380958782E1
1.167103633E1,-8.097261658E0,-7.172335052E0,2.012115784E0,1.100257453E1
1.168111233E1,-7.209158478E0,-4.501139832E0,1.569336548E0,8.642629400E0
1.169118733E1,-6.645730133E0,-2.309397583E0,1.037791901E0,7.111684627E0
1.170126233E1,-6.082451477E0,-3.556604004E-1,3.260220337E-1,6.101557232E0
1.171133833E1,-5.126389618E0,1.329684906E0,-5.746549988E-1,5.327115620E0
1.172141333E1,-3.979324951E0,2.671793976E0,-1.449435883E0,5.007431926E0
1.173148933E1,-2.689157867E0,3.507057037E0,-2.040257263E0,4.867614282E0
1.174156433E1,-1.389111328E0,3.729195099E0,-2.111060028E0,4.504786433E0
1.175163933E1,-2.671943665E-1,3.374582520E0,-1.729503479E0,3.801365846E0
1.176171533E1,3.436853027E-1,2.876867523E0,-1.043480072E0,3.079502719E0
1.177179033E1,6.515950012E-1,2.325563965E0,-5.734574890E-1,2.482272606E0
1.178186633E1,1.084494781E0,1.564396820E0,-3.077600098E-1,1.928258947E0
1.179194133E1,1.517095184E0,9.148974609E-1,-1.842668152E-1,1.781170801E0
1.180201633E1,1.836830292E0,3.809577942E-1,-1.197509766E-3,1.875919986E0
1.181209233E1,2.015558624E0,-2.790197754E-1,2.606080627E-1,2.051400781E0
1.182216733E1,2.053130493E0,-4.767585754E-1,5.514532471E-1,2.178702422E0
1.183224333E1,2.013013916E0,-7.229965210E-2,7.030879211E-1,2.133491245E0
1.184231833E1,1.846859436E0,7.619155884E-2,5.519023132E-1,1.929064824E0
1.185239333E1,1.564546509E0,-1.975891113E-1,2.430944824E-1,1.595600878E0
1.186246933E1,1.167572021E0,-4.257147217E-1,-6.092330933E-2,1.244254435E0
1.187254433E1,6.743476868E-1,-2.993774414E-1,-1.927990723E-1,7.625897569E-1
1.188262033E1,1.737886047E-1,-7.903564453E-2,-1.505868530E-1,2.431573823E-1
1.189269533E1,-4.857398987E-1,4.775070190E-2,2.245330811E-2,4.885975130E-1
1.190277033E1,-1.221010895E0,1.199006653E-1,1.417552185E-1,1.235045876E0
1.191284633E1,-1.976938934E0,1.639091492E-1,2.345622253E-1,1.997541788E0
1.192292133E1,-2.663561096E0,2.462379456E-1,3.486250305E-1,2.697541520E0
1.193299733E1,-2.995271301E0,4.574487305E-1,5.405259705E-1,3.077836551E0
1.194307233E1,-3.116668854E0,5.498066711E-1,6.222560120E-1,3.225385971E0
1.195314733E1,-2.923420715E0,3.821553040E-1,6.155200195E-1,3.011859268E0
1.196322333E1,-2.848276978E0,-1.035845947E-1,4.875361633E-1,2.891557196E0
1.197329833E1,-2.725831604E0,-1.009351044E0,2.344125366E-1,2.916144149E0
1.198337433E1,-2.699935455E0,-2.071242828E0,-3.338058472E-2,3.403059297E0
1.199344933E1,-3.198847961E0,-3.199446716E0,-5.156776428E-1,4.553571236E0
1.200352433E1,-4.309238892E0,-5.138963470E0,-9.057664490E-1,6.767488325E0
1.201360033E1,-6.197262726E0,-8.103698273E0,-9.584568787E-1,1.024668876E1
1.202367533E1,-8.420589294E0,-1.135403915E1,-1.004561005E0,1.417143860E1
1.203375133E1,-1.102083206E1,-1.449361038E1,-1.309476929E0,1.825481337E1
1.204382633E1,-1.356000183E1,-1.715268082E1,-1.108744354E0,2.189331914E1
1.205390133E1,-1.593107117E1,-1.971789642E1,-3.038681030E-2,2.534946530E1
1.206397733E1,-1.812805252E1,-2.303140594E1,1.455722809E0,2.934605726E1
1.207405233E1,-2.021426422E1,-2.714604950E1,3.009342041E0,3.397912037E1
1.208412833E1,-2.135204819E1,-3.034729248E1,4.489015045E0,3.737672242E1
1.209420333E1,-2.140324173E1,-3.128883453E1,5.044958954E0,3.824318938E1
1.210427833E1,-2.094474518E1,-3.021646454E1,4.777614899E0,3.707482547E1
1.211435433E1,-2.025198578E1,-2.801364532E1,4.322411499E0,3.483662575E1
1.212442933E1,-1.969574249E1,-2.576427292E1,4.060905304E0,3.268349711E1
1.213450533E1,-1.873788437E1,-2.383298904E1,4.021986237E0,3.058261027E1
1.214458033E1,-1.743185028E1,-2.219120316E1,4.412224731E0,2.856197873E1
1.215465533E1,-1.596400269E1,-2.041005707E1,4.960384827E0,2.638229006E1
1.216473133E1,-1.457549011E1,-1.818867645E1,5.158423004E0,2.387220541E1
1.217480633E1,-1.354129074E1,-1.571267532E1,5.095254364E0,2.135922138E1
1.218488233E1,-1.275662247E1,-1.278925461E1,4.749323730E0,1.867759423E1
1.219495733E1,-1.170146667E1,-9.433832245E0,3.789819031E0,1.550110452E1
1.220503233E1,-1.030352371E1,-6.214925995E0,2.574795685E0,1.230518097E1
1.221510833E1,-8.603508911E0,-3.456162872E0,1.481618958E0,9.389388804E0
1.222518333E1,-6.763684845E0,-1.194965057E0,7.077282715E-1,6.904799307E0
1.223525933E1,-5.105732574E0,5.279521179E-1,2.721340942E-1,5.140164932E0
1.224533433E1,-3.842958527E0,1.687440948E0,7.813751221E-2,4.197843811E0
1.225540933E1,-2.821183319E0,2.473905487E0,1.197509766E-3,3.752237348E0
1.226548533E1,-1.969753876E0,3.059936829E0,-1.463955688E-1,3.642056478E0
1.227556033E1,-1.323697357E0,3.290008392E0,-3.498225403E-1,3.563524340E0
1.228563633E1,-7.093748474E-1,3.124153290E0,-6.261479187E-1,3.264292828E0
1.229571133E1,-1.466949463E-2,2.782863007E0,-1.071621552E0,2.982099002E0
1.230578633E1,4.541555786E-1,2.367177429E0,-1.492546234E0,2.835045067E0
1.231586233E1,6.057902527E-1,2.000889130E0,-1.624421997E0,2.647505612E0
1.232593733E1,5.430706787E-1,1.752555542E0,-1.417103119E0,2.318309285E0
1.233601333E1,4.035607910E-1,1.527423706E0,-9.946815491E-1,1.866889358E0
1.234608833E1,2.951861572E-1,1.301543427E0,-5.161267090E-1,1.430921709E0
1.235616308E1,9.939331055E-2,1.056952057E0,-3.263214111E-2,1.062116537E0
1.236623908E1,-1.428030396E-1,8.168513489E-1,4.249662781E-1,9.317913778E-1
1.237631408E1,-2.191442871E-1,7.813751221E-1,7.262896729E-1,1.089067486E0
1.238638908E1,-1.255888367E-1,8.852590942E-1,7.608677673E-1,1.174042580E0
1.239646508E1,1.321751404E-1,9.840536499E-1,4.602928162E-1,1.094395418E0
1.240654008E1,3.752696228E-1,9.033714294E-1,6.361770630E-2,9.802828377E-1
1.241661608E1,4.641847229E-1,5.688171387E-1,-1.448986816E-1,7.483421825E-1
1.242669108E1,3.453318787E-1,2.418969727E-1,-7.035369873E-2,4.274551377E-1
1.243676608E1,1.261875916E-1,1.128652954E-1,2.013313293E-1,2.630516819E-1
1.244684208E1,-7.274871826E-2,5.733078003E-2,4.111949158E-1,4.214978684E-1
1.245691708E1,-2.499801636E-1,2.586621094E-1,4.953199768E-1,6.121585158E-1
1.246699308E1,-4.715194702E-1,5.099894714E-1,7.093748474E-1,9.927902829E-1
1.247706808E1,-8.384065247E-1,4.842430115E-1,9.624984741E-1,1.365217971E0
1.248714308E1,-1.118923187E0,2.571652222E-1,9.508227539E-1,1.490700158E0
1.249721908E1,-1.259480896E0,-1.998344421E-1,8.057743835E-1,1.508475485E0
1.250729408E1,-1.210083618E0,-8.385562134E-1,6.647676086E-1,1.615362145E0
1.251737008E1,-1.169817352E0,-1.591789856E0,5.245092773E-1,2.043863392E0
1.252744508E1,-1.536554718E0,-2.536175995E0,5.605842590E-1,3.017854170E0
1.253752008E1,-2.453847198E0,-3.560346222E0,4.837939453E-1,4.351032966E0
1.254759608E1,-4.643044739E0,-5.317242737E0,5.643264771E-2,7.059328538E0
1.255767108E1,-7.751780090E0,-8.190218353E0,-6.662644958E-1,1.129662249E1
1.256774708E1,-1.070364166E1,-1.212343918E1,-9.722282410E-1,1.620157246E1
1.257782208E1,-1.288909698E1,-1.602896759E1,-6.101312256E-1,2.057738767E1
1.258789708E1,-1.512829056E1,-1.866902756E1,1.347198486E-2,2.402910624E1
1.259797308E1,-1.757944336E1,-2.102168518E1,7.286846924E-1,2.741311836E1
1.260804808E1,-1.959051132E1,-2.397100204E1,1.779649200E0,3.100909905E1
1.261812408E1,-2.011457153E1,-2.631542679E1,3.269501038E0,3.328343901E1
1.262819908E1,-1.905567352E1,-2.731400024E1,4.077071686E0,3.355288089E1
1.263827408E1,-1.772404266E1,-2.768373138E1,4.172124023E0,3.313513680E1
1.264835008E1,-1.695374451E1,-2.731040771E1,4.306993561E0,3.243205229E1
1.265842508E1,-1.695105011E1,-2.616888153E1,4.376000061E0,3.148488267E1
1.266850108E1,-1.716405716E1,-2.427741486E1,4.238885193E0,3.003274676E1
1.267857608E1,-1.693638062E1,-2.208986389E1,3.987557831E0,2.811945399E1
1.268865108E1,-1.630828674E1,-2.030287994E1,3.708238678E0,2.630433775E1
1.269872708E1,-1.509700562E1,-1.869731873E1,3.588338013E0,2.429784920E1
1.270880208E1,-1.372630600E1,-1.713756226E1,3.667972412E0,2.226121151E1
1.271887808E1,-1.268028122E1,-1.535342239E1,3.881578217E0,2.028752721E1
1.272895308E1,-1.164638123E1,-1.324894867E1,3.951782227E0,1.807731781E1
1.273902808E1,-1.066577042E1,-1.087772964E1,3.910617828E0,1.572821009E1
1.274910408E1,-9.752519531E0,-8.358468475E0,3.787873077E0,1.339117676E1
1.275917908E1,-8.891959076E0,-5.923182678E0,3.495231628E0,1.124133770E1
1.276925508E1,-8.087831268E0,-3.538341980E0,3.281925201E0,9.418275406E0
1.277933008E1,-7.198979645E0,-1.259181519E0,2.973865814E0,7.890166279E0
1.278940508E1,-6.152805176E0,6.991960144E-1,2.539768524E0,6.693004613E0
1.279948108E1,-5.227130127E0,2.215692444E0,1.999691620E0,6.019214977E0
1.280955608E1,-4.361929321E0,3.144810333E0,1.281934204E0,5.528075139E0
1.281963208E1,-3.007396088E0,3.484903107E0,2.218386841E-1,4.608491434E0
1.282970708E1,-1.287472687E0,3.020119629E0,-7.818241882E-1,3.374901118E0
1.283978208E1,-2.411485291E-1,2.415377197E0,-1.428928528E0,2.816742153E0
1.284985808E1,6.074368286E-1,1.949545898E0,-1.924398193E0,2.805889719E0
1.285993308E1,9.095086670E-1,1.415306854E0,-2.339934082E0,2.881942230E0
1.287000908E1,1.118474121E0,8.282276917E-1,-2.689307556E0,3.028088605E0
1.288008408E1,9.839039612E-1,3.270698547E-1,-2.857407990E0,3.039707570E0
1.289015908E1,6.396199036E-1,1.187031555E-1,-2.685565338E0,2.763234562E0
1.290023508E1,1.737886047E-1,6.271957397E-2,-2.156415710E0,2.164316275E0
1.291031008E1,-1.878593445E-1,-1.231938171E-1,-1.711989899E0,1.726666518E0
1.292038608E1,-1.350192261E-1,-5.345384216E-1,-1.443747711E0,1.545434880E0
1.293046108E1,2.046244812E-1,-6.906637573E-1,-8.779243469E-1,1.135622632E0
1.294053608E1,1.276844788E-1,-3.983216858E-1,-1.026864624E-1,4.307063977E-1
1.295061208E1,5.837860107E-3,1.158590698E-1,6.649172974E-1,6.749610485E-1
1.296068708E1,-1.137634277E-1,3.397933960E-1,1.261576538E0,1.311478948E0
1.297076208E1,-2.317181396E-1,2.992277527E-1,1.589993591E0,1.634414319E0
1.298083808E1,-2.685415649E-1,2.457888794E-1,1.675465851E0,1.714558999E0
1.299091308E1,-2.896476746E-1,7.514373779E-2,1.679507446E0,1.705956511E0
1.300098908E1,-3.610491943E-1,-1.490899658E-1,1.526226196E0,1.575420814E0
1.301106408E1,-4.197271729E-1,-3.216810608E-1,1.009051666E0,1.139225557E0
1.302113908E1,-6.512956238E-1,-5.963598633E-1,4.987628174E-1,1.014196936E0
1.303121508E1,-1.028211823E0,-7.972421265E-1,1.935475159E-1,1.315399255E0
1.304129008E1,-1.572779388E0,-9.388476562E-1,-3.592529297E-3,1.831688520E0
1.305136608E1,-2.180515594E0,-1.237925720E0,3.637435913E-2,2.507674508E0
1.306144108E1,-2.832409973E0,-1.606459351E0,2.453398132E-1,3.265493764E0
1.307151608E1,-3.420237579E0,-1.983674927E0,4.697232056E-1,3.981661865E0
1.308159208E1,-4.521497498E0,-2.651585999E0,3.282673645E-1,5.251914640E0
1.309166708E1,-5.879772949E0,-4.049528961E0,-2.465373230E-1,7.143612209E0
1.310174308E1,-7.063062286E0,-6.503675537E0,-4.653822327E-1,9.612555590E0
1.311181808E1,-8.821306000E0,-9.990075531E0,-4.968168640E-1,1.333656161E1
1.312189308E1,-1.056173676E1,-1.426144318E1,-8.551716614E-1,1.776711466E1
1.313196908E1,-1.176628189E1,-1.834749619E1,-6.574328613E-1,2.180615105E1
1.314204408E1,-1.352078339E1,-2.205783051E1,6.706054688E-2,2.587206925E1
1.315212008E1,-1.581955307E1,-2.556952789E1,1.135838013E0,3.008902032E1
1.316219508E1,-1.755564285E1,-2.830688553E1,2.133513336E0,3.337712156E1
1.317227008E1,-1.868803802E1,-2.981619690E1,2.689606934E0,3.529139198E1
1.318234608E1,-1.910911240E1,-3.021511734E1,2.771187286E0,3.585792760E1
1.319242108E1,-1.896151932E1,-2.969839188E1,2.862048340E0,3.535144998E1
1.320249708E1,-1.887559799E1,-2.889830566E1,3.045716400E0,3.465078149E1
1.321257208E1,-1.862127686E1,-2.802547073E1,3.273692322E0,3.380674523E1
1.322264708E1,-1.783645889E1,-2.687825638E1,3.846251678E0,3.248651387E1
1.323272308E1,-1.670690781E1,-2.582310059E1,4.350253601E0,3.106248539E1
1.324279808E1,-1.536015839E1,-2.447784805E1,4.427492981E0,2.923529040E1
1.325287408E1,-1.405352554E1,-2.227203506E1,4.137695618E0,2.665831298E1
1.326294908E1,-1.302187088E1,-1.950294342E1,3.516936493E0,2.371292402E1
1.327302408E1,-1.203048248E1,-1.668969360E1,2.661315765E0,2.074514360E1
1.328310008E1,-1.075962524E1,-1.371687561E1,1.783541107E0,1.752436107E1
1.329317508E1,-9.674382019E0,-1.072444839E1,1.010099487E0,1.447852761E1
1.330325108E1,-8.779842224E0,-7.595505066E0,8.873547363E-1,1.164322658E1
1.331332608E1,-7.872728577E0,-4.384981384E0,9.300160217E-1,9.059406536E0
1.332340108E1,-6.673422546E0,-1.480870514E0,6.557862854E-1,6.867139260E0
1.333347708E1,-5.085973663E0,9.517208862E-1,7.095245361E-2,5.174740090E0
1.334355208E1,-3.392994232E0,2.744542694E0,-6.265969849E-1,4.408803493E0
1.335362808E1,-1.763632507E0,3.796854401E0,-1.137035522E0,4.338127792E0
1.336370288E1,-4.001179504E-1,4.149371338E0,-1.479972382E0,4.423538756E0
1.337377788E1,1.033600616E0,3.780538330E0,-1.668131104E0,4.259514254E0
1.338385388E1,1.680704956E0,3.154989166E0,-1.778451691E0,3.992695356E0
1.339392888E1,2.597548370E0,2.267185364E0,-1.972148895E0,3.971996762E0
1.340400488E1,2.994373169E0,1.097068634E0,-2.068249054E0,3.800984663E0
1.341407988E1,2.951861572E0,-5.239105225E-3,-1.645228729E0,3.379392218E0
1.342415488E1,2.443518677E0,-4.825964355E-1,-8.357121277E-1,2.627184349E0
1.343423088E1,1.614093475E0,-4.918771362E-1,-5.403762817E-2,1.688241964E0
1.344430588E1,8.400531006E-1,-4.790039062E-3,5.921685791E-1,1.027801431E0
1.345438188E1,3.511697388E-1,6.363267517E-1,8.752299500E-1,1.137655214E0
1.346445688E1,9.475296021E-2,8.207432556E-1,9.181906128E-1,1.235180803E0
1.347453188E1,1.437011719E-1,7.105723572E-1,9.680369568E-1,1.209404255E0
1.348460788E1,6.224057007E-1,5.563929749E-1,9.729766846E-1,1.282047436E0
1.349468288E1,9.568103027E-1,1.945953369E-1,1.049467621E0,1.433434891E0
1.350475788E1,9.749226379E-1,-3.076103210E-1,1.223854980E0,1.594653339E0
1.351483388E1,9.479786682E-1,-5.641767883E-1,1.391805725E0,1.775973587E0
1.352490888E1,7.680528259E-1,-3.939807129E-1,1.652713165E0,1.864560740E0
1.353498488E1,3.002755737E-1,-1.487905884E-1,1.954785004E0,1.983302415E0
1.354505988E1,-2.158511353E-1,3.891906738E-2,1.963466949E0,1.975679343E0
1.355513488E1,-5.258564758E-1,1.460961914E-1,1.489402771E0,1.586250215E0
1.356521088E1,-8.261320496E-1,3.652404785E-2,8.631051636E-1,1.195315311E0
1.357528588E1,-1.049617310E0,-1.308279419E-1,4.486170959E-1,1.148942882E0
1.358536188E1,-1.183888092E0,-2.604583740E-1,1.245410156E-1,1.218581160E0
1.359543688E1,-1.400487671E0,-4.140390015E-1,1.010398865E-1,1.463899952E0
1.360551188E1,-1.546583862E0,-6.483018494E-1,3.077600098E-1,1.704973066E0
1.361558788E1,-1.932182007E0,-1.106349335E0,5.818400574E-1,2.301276604E0
1.362566288E1,-2.331850891E0,-1.775607605E0,9.395960999E-1,3.077848563E0
1.363573888E1,-3.123255157E0,-2.624492340E0,8.934919739E-1,4.176243615E0
1.364581388E1,-4.503385162E0,-3.938908997E0,2.230361938E-1,5.987088370E0
1.365588888E1,-6.213429108E0,-5.928421783E0,-6.548881531E-1,8.612883641E0
1.366596488E1,-8.369695129E0,-8.805588684E0,-1.140328674E0,1.220207106E1
1.367603988E1,-1.048808990E1,-1.171239395E1,-1.192420349E0,1.576711985E1
1.368611588E1,-1.302142181E1,-1.447040863E1,-8.370593262E-1,1.948463036E1
1.369619088E1,-1.616308868E1,-1.789453812E1,-4.510121155E-1,2.411769770E1
1.370626588E1,-1.880958527E1,-2.255464737E1,2.838098145E-1,2.936993640E1
1.371634188E1,-1.999003052E1,-2.745291138E1,2.031275940E0,3.402043129E1
1.372641688E1,-1.950129684E1,-3.051973389E1,2.804867249E0,3.632660204E1
1.373649288E1,-1.768153107E1,-3.173700256E1,2.057471466E0,3.638828192E1
1.374656788E1,-1.589709183E1,-3.173101501E1,2.235151978E0,3.556080352E1
1.375664288E1,-1.519340515E1,-3.037094330E1,3.465892639E0,3.413570226E1
1.376671888E1,-1.548125656E1,-2.839744720E1,4.679568787E0,3.268000423E1
1.377679388E1,-1.613809067E1,-2.666839279E1,5.697152710E0,3.168751637E1
1.378686988E1,-1.631098114E1,-2.502346344E1,6.397546234E0,3.054751096E1
1.379694488E1,-1.570818466E1,-2.327195572E1,6.204747162E0,2.875464964E1
1.380701988E1,-1.474448868E1,-2.171698929E1,4.872068481E0,2.669765198E1
1.381709588E1,-1.382435211E1,-1.992925690E1,3.550616455E0,2.451315706E1
1.382717088E1,-1.278191986E1,-1.719219864E1,2.668800201E0,2.158869296E1
1.383724688E1,-1.182002014E1,-1.385533768E1,1.976040802E0,1.831906099E1
1.384732188E1,-1.082024918E1,-1.029050079E1,1.589245148E0,1.501658746E1
1.385739688E1,-9.448801117E0,-6.847809906E0,1.126557312E0,1.172354360E1
1.386747288E1,-7.732170868E0,-3.837270355E0,6.617738342E-1,8.657312211E0
1.387754788E1,-5.968987427E0,-1.430724792E0,5.700146484E-1,6.164470864E0
1.388762388E1,-4.233047333E0,4.285588074E-1,5.289999390E-1,4.287446012E0
1.389769888E1,-2.725083160E0,1.649869080E0,4.646337891E-1,3.219321476E0
1.390777388E1,-1.520388336E0,2.311343536E0,5.899232483E-1,2.828762817E0
1.391784988E1,-5.294490051E-1,2.558329926E0,7.209008789E-1,2.710178285E0
1.392792488E1,1.911524963E-1,2.368225250E0,7.159611511E-1,2.481457330E0
1.393799988E1,9.159452820E-1,1.838027802E0,4.677772522E-1,2.106209276E0
1.394807587E1,1.094374237E0,1.685195618E0,4.834945679E-2,2.009944504E0
1.395815088E1,1.454674988E0,1.603465576E0,-5.911207581E-1,2.244238161E0
1.396822688E1,1.739083557E0,1.115031281E0,-1.215921478E0,2.397117314E0
1.397830188E1,2.405946808E0,6.554869080E-1,-1.607058105E0,2.966627527E0
1.398837688E1,2.973416748E0,1.054557037E0,-2.027084656E0,3.749982654E0
1.399845288E1,3.331322479E0,1.182091827E0,-2.415826263E0,4.281502900E0
1.400852788E1,3.461102600E0,2.628533936E-1,-2.534679108E0,4.298013645E0
1.401860388E1,3.340902557E0,-6.280938721E-1,-1.863025818E0,3.876467078E0
1.402867888E1,3.009042664E0,-1.007105713E0,-5.548960876E-1,3.221258968E0
1.403875388E1,2.554737396E0,-1.133293304E0,7.599696350E-1,2.896306393E0
1.404882988E1,2.144590302E0,-1.268312531E0,1.713486786E0,3.023891731E0
1.405890488E1,1.777104492E0,-1.387015686E0,2.398013306E0,3.291258225E0
1.406898088E1,1.312620392E0,-1.269959106E0,2.973416748E0,3.489552347E0
1.407905588E1,8.749305725E-1,-8.500822449E-1,3.080444183E0,3.313197805E0
1.408913088E1,5.427713013E-1,-3.353027344E-1,2.489622803E0,2.570068153E0
1.409920688E1,2.194436646E-1,-4.236190796E-2,1.872156830E0,1.885449880E0
1.410928188E1,-9.864486694E-2,5.149291992E-2,1.526076508E0,1.530128046E0
1.411935788E1,-4.870870972E-1,-7.394622803E-2,1.171463928E0,1.270846025E0
1.412943288E1,-9.021739197E-1,-4.367916870E-1,1.136436768E0,1.515319533E0
1.413950788E1,-1.327738953E0,-9.059161377E-1,1.447040863E0,2.162753346E0
1.414958388E1,-1.702858887E0,-1.517544250E0,1.516197052E0,2.738890732E0
1.415965888E1,-2.114353180E0,-2.335742798E0,1.230441284E0,3.382331968E0
1.416973388E1,-2.895877991E0,-3.001258850E0,6.749464417E-1,4.224833337E0
1.417980988E1,-4.186344452E0,-3.532204742E0,6.750961304E-2,5.477819617E0
1.418988488E1,-5.553451538E0,-4.672383728E0,-8.083190918E-1,7.302422437E0
1.419996088E1,-7.481591949E0,-6.779851227E0,-1.772464142E0,1.025096239E1
1.421003588E1,-1.007943970E1,-9.377399597E0,-2.409090271E0,1.397620992E1
1.422011088E1,-1.252670059E1,-1.177286819E1,-2.255509644E0,1.733799230E1
1.423018688E1,-1.465572327E1,-1.370011047E1,-9.581575012E-1,2.008485293E1
1.424026188E1,-1.715163300E1,-1.574815155E1,6.044430542E-1,2.329266286E1
1.425033788E1,-1.970113129E1,-1.848506012E1,2.092648315E0,2.709633183E1
1.426041288E1,-2.102393051E1,-2.163316360E1,3.376378784E0,3.035456070E1
1.427048788E1,-2.111329468E1,-2.510788788E1,3.734733582E0,3.301704834E1
1.428056388E1,-2.026455963E1,-2.860790955E1,3.184777222E0,3.520238162E1
1.429063888E1,-1.871109009E1,-3.113240982E1,2.551743622E0,3.641213025E1
1.430071488E1,-1.669119049E1,-3.209011826E1,2.477947083E0,3.625619604E1
1.431078988E1,-1.514161285E1,-3.126009430E1,3.538641357E0,3.491395019E1
1.432086488E1,-1.463925751E1,-2.891327454E1,5.846242676E0,3.293119886E1
1.433094088E1,-1.474314148E1,-2.593416962E1,8.300538940E0,3.096514688E1
1.434101588E1,-1.470901245E1,-2.308978455E1,9.912387085E0,2.911612295E1
1.435109188E1,-1.405292679E1,-2.048834427E1,1.042896286E1,2.694476329E1
1.436116638E1,-1.282458115E1,-1.794977325E1,9.962083740E0,2.420552321E1
1.437124138E1,-1.147259262E1,-1.542197983E1,8.528963928E0,2.102857744E1
1.438131738E1,-9.987979889E0,-1.284778290E1,6.771768036E0,1.762617684E1
1.439139238E1,-8.440198517E0,-9.959239655E0,5.089117126E0,1.401151379E1
1.440146837E1,-6.985523529E0,-6.947652283E0,3.369493103E0,1.041253547E1
1.441154338E1,-5.456153870E0,-3.993994446E0,1.638642426E0,6.957496366E0
1.442161838E1,-3.895948334E0,-1.358275452E0,7.439529419E-2,4.126603965E0
1.443169438E1,-2.524649963E0,6.264472961E-1,-1.115180969E0,2.830180603E0
1.444176938E1,-1.434167633E0,1.767225037E0,-2.169588318E0,3.144365532E0
1.445184538E1,-5.150788879E-1,2.375410309E0,-2.620001678E0,3.573833962E0
1.446192038E1,1.850152588E-1,2.511776733E0,-3.071313171E0,3.971928700E0
1.447199538E1,1.106499023E0,2.351310425E0,-3.493135986E0,4.353734009E0
1.448207138E1,2.057621155E0,1.944456482E0,-3.635040894E0,4.607411217E0
1.449214638E1,2.414628754E0,1.674567719E0,-3.166664886E0,4.319997172E0
1.450222138E1,2.197729797E0,1.751058655E0,-2.302960968E0,3.633160043E0
1.451229738E1,1.784888306E0,1.527573395E0,-1.663640442E0,2.878716078E0
1.452237238E1,1.475032654E0,7.394622803E-1,-1.356030121E0,2.135730199E0
1.453244838E1,1.426533508E0,9.789642334E-2,-1.255588989E0,1.902914940E0
1.454252338E1,1.564247131E0,-1.453477478E-1,-1.426982574E0,2.122327572E0
1.455259838E1,1.575473785E0,-2.510279846E-1,-1.547182617E0,2.222365125E0
1.456267438E1,1.517544250E0,-2.167492676E-1,-1.361867981E0,2.050513398E0
1.457274938E1,1.305135956E0,-2.161505127E-1,-9.294172668E-1,1.616761381E0
1.458282538E1,1.100511475E0,-5.078938293E-1,-2.971321106E-1,1.247945968E0
1.459290038E1,1.045276337E0,-8.481362915E-1,4.129911804E-1,1.408012608E0
1.460297538E1,9.580078125E-1,-1.041085052E0,1.180894318E0,1.842864196E0
1.461305138E1,7.773335266E-1,-1.173559570E0,1.886227570E0,2.353581084E0
1.462312638E1,7.689509583E-1,-1.153800659E0,2.479294281E0,2.840676270E0
1.463320238E1,6.782395935E-1,-9.006770325E-1,2.853366394E0,3.068049517E0
1.464327738E1,3.501219177E-1,-6.718029785E-1,2.914439392E0,3.011289021E0
1.465335238E1,-7.993377686E-2,-5.448669434E-1,2.459984436E0,2.520871441E0
1.466342838E1,-4.749623108E-1,-5.878276062E-1,1.674567719E0,1.837201006E0
1.467350338E1,-8.493338013E-1,-7.441026306E-1,1.047521667E0,1.540246173E0
1.468357938E1,-1.238225098E0,-7.852670288E-1,5.538482666E-1,1.567352418E0
1.469365438E1,-1.635498962E0,-8.764274597E-1,4.790039063E-2,1.856145575E0
1.470372938E1,-1.897154846E0,-1.225651245E0,-2.975811768E-1,2.278151014E0
1.471380538E1,-2.293231201E0,-2.004930725E0,-4.784051514E-1,3.083427970E0
1.472388038E1,-2.992576904E0,-3.148253174E0,-6.586303711E-1,4.393268549E0
1.473395538E1,-4.538412323E0,-4.765340424E0,-8.653504944E-1,6.637355441E0
1.474403138E1,-6.905739441E0,-7.142397308E0,-8.545729065E-1,9.971628322E0
1.475410638E1,-9.748777313E0,-9.304650879E0,-4.224215698E-1,1.348308670E1
1.476418238E1,-1.267564087E1,-1.080932190E1,-1.037342834E-1,1.665905376E1
1.477425738E1,-1.510014908E1,-1.243509109E1,-1.386117554E-1,1.956183033E1
1.478433238E1,-1.743993347E1,-1.534129761E1,-2.700384521E-1,2.322885302E1
1.479440838E1,-1.939965820E1,-2.004900787E1,-1.567240906E-1,2.789863827E1
1.480448338E1,-2.037323364E1,-2.526820450E1,3.442840576E-1,3.246027324E1
1.481455938E1,-2.041005707E1,-2.965049149E1,1.166374512E0,3.601503164E1
1.482463438E1,-1.940100540E1,-3.236240204E1,2.145338745E0,3.779320778E1
1.483470938E1,-1.799737427E1,-3.296998856E1,3.338058472E0,3.771032034E1
1.484478538E1,-1.737422012E1,-3.208532822E1,4.807103577E0,3.680271806E1
1.485486038E1,-1.750205429E1,-3.039579163E1,6.080655212E0,3.559775865E1
1.486493638E1,-1.744337631E1,-2.825224915E1,6.909481659E0,3.391462658E1
1.487501137E1,-1.703457642E1,-2.580094666E1,7.435038757E0,3.179851322E1
1.488508638E1,-1.608764557E1,-2.340383148E1,7.505991211E0,2.937501612E1
1.489516238E1,-1.471949066E1,-2.102527771E1,7.115303650E0,2.663368645E1
1.490523738E1,-1.320853271E1,-1.821966202E1,6.273154907E0,2.336180415E1
1.491531338E1,-1.190893524E1,-1.524729309E1,4.971611481E0,1.997547511E1
1.492538838E1,-1.093685669E1,-1.242206818E1,3.707490234E0,1.696078111E1
1.493546338E1,-1.016805542E1,-9.545050964E0,2.656226349E0,1.419693232E1
1.494553938E1,-9.118587799E0,-6.427933044E0,1.230141907E0,1.122409087E1
1.495561438E1,-7.570956116E0,-3.349135437E0,-6.288423157E-1,8.302501270E0
1.496568938E1,-5.913153534E0,-4.070036316E-1,-2.658172302E0,6.495915383E0
1.497576538E1,-4.699028320E0,2.035317535E0,-4.459526367E0,6.790490413E0
1.498584038E1,-3.352877655E0,3.292702789E0,-5.391488342E0,7.152050529E0
1.499591638E1,-2.209854584E0,3.702849884E0,-5.168152771E0,6.730851180E0
1.500599138E1,-1.096769257E0,3.729045410E0,-4.485572205E0,5.935405671E0
1.501606638E1,-8.502319336E-2,3.425626373E0,-3.698508911E0,5.041935458E0
1.502614238E1,1.046623535E0,2.740950165E0,-2.745440826E0,4.018167986E0
1.503621738E1,2.515219574E0,1.567540283E0,-1.911375275E0,3.526594318E0
1.504629338E1,2.844834137E0,8.993298340E-1,-1.115480347E0,3.185305609E0
1.505636838E1,2.754272461E0,7.352709961E-1,-6.581813049E-1,2.925720912E0
1.506644338E1,2.457888794E0,3.549119568E-1,-3.219804382E-1,2.504166772E0
1.507651938E1,2.019749908E0,-1.097218323E-1,1.586700439E-1,2.028941782E0
1.508659438E1,1.447789307E0,-5.629792786E-1,4.802014160E-1,1.625925258E0
1.509667038E1,1.033899994E0,-9.207353210E-1,4.457730103E-1,1.454447079E0
1.510674538E1,7.420069885E-1,-1.151555328E0,2.037263489E-1,1.384975982E0
1.511682038E1,5.695655823E-1,-1.222807159E0,4.430786133E-2,1.349676068E0
1.512689638E1,6.132746887E-1,-1.156345367E0,6.077362061E-2,1.310318238E0
1.513697138E1,5.327421570E-1,-1.021475830E0,3.050656128E-1,1.191760087E0
1.514704638E1,2.260299683E-1,-8.104147339E-1,7.479945374E-1,1.125769699E0
1.515712238E1,-1.945953369E-3,-6.027964783E-1,1.220412140E0,1.361166107E0
1.516719738E1,-2.823129272E-1,-3.306623840E-1,1.653910675E0,1.710104886E0
1.517727338E1,-6.123765564E-1,4.191284180E-2,1.960622864E0,2.054459478E0
1.518734838E1,-7.587721252E-1,4.073030090E-1,1.861828308E0,2.051349684E0
1.519742338E1,-7.990383911E-1,6.243516541E-1,1.375639343E0,1.708994131E0
1.520749938E1,-9.440867615E-1,6.493496704E-1,9.304650879E-1,1.476048809E0
1.521757438E1,-1.150806885E0,6.888674927E-1,5.766009521E-1,1.459919027E0
1.522765038E1,-1.218615875E0,5.310955811E-1,3.993695068E-1,1.388014110E0
1.523772538E1,-1.336420898E0,-8.352630615E-2,4.073030090E-1,1.399604659E0
1.524780038E1,-1.274449768E0,-1.188528442E0,2.835104370E-1,1.765559469E0
1.525787638E1,-1.564097443E0,-2.739153900E0,3.483256531E-1,3.173435939E0
1.526795138E1,-2.550396423E0,-4.352798309E0,6.300398254E-1,5.084124823E0
1.527802738E1,-4.310586090E0,-6.225703583E0,6.453080750E-1,7.599800001E0
1.528810238E1,-6.920109558E0,-8.163573761E0,4.752616882E-1,1.071250328E1
1.529817738E1,-1.018736526E1,-1.041085052E1,1.073268127E-1,1.456639072E1
1.530825338E1,-1.323218353E1,-1.306572968E1,-1.592687988E-1,1.859648729E1
1.531832838E1,-1.558244614E1,-1.624990814E1,-5.044509888E-2,2.251387765E1
1.532840438E1,-1.699116669E1,-2.023911255E1,4.656816101E-1,2.642987479E1
1.533847938E1,-1.792836777E1,-2.495804947E1,1.311572571E0,3.075793925E1
1.534855437E1,-1.882949387E1,-2.921774139E1,2.328857117E0,3.483747733E1
1.535863100E1,-1.849673584E1,-3.127027313E1,3.099454651E0,3.646321211E1
1.536870600E1,-1.740700195E1,-3.107178589E1,3.412154388E0,3.577851860E1
1.537878200E1,-1.685734497E1,-2.936653198E1,3.864214325E0,3.408071937E1
1.538885700E1,-1.718321732E1,-2.699246887E1,4.512216797E0,3.231433789E1
1.539893200E1,-1.751043686E1,-2.518063660E1,4.938679962E0,3.106558253E1
1.540900800E1,-1.728156281E1,-2.407279037E1,5.160368958E0,3.007957874E1
1.541908300E1,-1.624960876E1,-2.326477066E1,4.927303619E0,2.880238983E1
1.542915800E1,-1.470018082E1,-2.234553223E1,4.093387756E0,2.705871301E1
1.543923400E1,-1.326152252E1,-2.097782639E1,3.106190643E0,2.501170925E1
1.544930900E1,-1.232566864E1,-1.860286514E1,2.643203430E0,2.247165377E1
1.545938500E1,-1.195953003E1,-1.546509018E1,2.360142059E0,1.969186744E1
1.546946000E1,-1.159967834E1,-1.218211716E1,1.954036560E0,1.693442574E1
1.547953500E1,-1.065289719E1,-8.885223083E0,1.544188843E0,1.395764761E1
1.548961100E1,-9.267977142E0,-5.854026489E0,1.077459412E0,1.101480573E1
1.549968600E1,-7.646698608E0,-3.133134613E0,6.203100586E-1,8.286936508E0
1.550976200E1,-5.801036682E0,-8.406518555E-1,2.691403198E-1,5.867806970E0
1.551983700E1,-4.237687683E0,8.887019348E-1,1.145118713E-1,4.331385575E0
1.552991200E1,-2.983894958E0,2.062411194E0,-3.891906738E-2,3.627490007E0
1.553998800E1,-2.059267731E0,2.714754639E0,-5.408253479E-1,3.450067882E0
1.555006300E1,-1.377285919E0,2.981200562E0,-1.249002686E0,3.513471360E0
1.556013900E1,-6.996450806E-1,2.818339233E0,-1.881587219E0,3.460189263E0
1.557021400E1,-4.162843323E-1,2.426304474E0,-2.510130157E0,3.515821306E0
1.558028900E1,-3.119512939E-1,2.063758392E0,-3.118465118E0,3.752497436E0
1.559036500E1,-3.388952637E-1,1.726659393E0,-3.053649902E0,3.524341128E0
1.560044000E1,-1.438508606E-1,1.600322113E0,-2.613265686E0,3.067716004E0
1.561051500E1,2.106120300E-1,1.570983124E0,-2.298919373E0,2.792378141E0
1.562059100E1,4.424798584E-1,1.166823578E0,-2.315534821E0,2.630392973E0
1.563066600E1,6.222560120E-1,5.146298218E-1,-2.281256104E0,2.419953679E0
1.564074200E1,8.643026733E-1,2.260299683E-2,-2.085762634E0,2.257860884E0
1.565081700E1,9.861492920E-1,-2.667453003E-1,-1.820963287E0,2.087953729E0
1.566089200E1,8.978329468E-1,-3.848497009E-1,-1.352287903E0,1.668201386E0
1.567096800E1,6.601272583E-1,-3.382965088E-1,-5.900729370E-1,9.478389083E-1
1.568104300E1,3.204835510E-1,-1.917512512E-1,2.387535095E-1,4.432623232E-1
1.569111900E1,-4.730163574E-2,-1.007405090E-1,9.846524048E-1,9.909220217E-1
1.570119400E1,-5.825885010E-1,-2.978805542E-2,1.595681763E0,1.698969387E0
1.571126900E1,-1.084345093E0,1.149609375E-1,2.021845551E0,2.297145996E0
1.572134500E1,-1.354982300E0,3.315605164E-1,2.181713104E0,2.589552370E0
1.573142000E1,-1.426982574E0,5.328918457E-1,2.027833099E0,2.536209783E0
1.574149600E1,-1.505868530E0,5.780978394E-1,1.568588104E0,2.249956840E0
1.575157100E1,-1.618733826E0,4.966671753E-1,1.102756805E0,2.020655847E0
1.576164600E1,-1.662143555E0,3.620970154E-1,8.333171082E-1,1.894268420E0
1.577172200E1,-1.582808533E0,1.594184875E-1,6.539900208E-1,1.720000015E0
1.578179700E1,-1.716779938E0,-2.417472839E-1,5.481600952E-1,1.818310918E0
1.579187200E1,-2.311942291E0,-9.063652039E-1,6.051914978E-1,2.555940490E0
1.580194800E1,-3.190166016E0,-1.832489319E0,8.722361755E-1,3.781001489E0
1.581202300E1,-4.310137024E0,-3.124153290E0,1.103804626E0,5.436542982E0
1.582209900E1,-5.394482117E0,-5.212161255E0,9.654922485E-1,7.563017753E0
1.583217400E1,-6.804849243E0,-8.185578003E0,1.012344818E0,1.069273129E1
1.584224900E1,-8.916508026E0,-1.158860138E1,1.141226807E0,1.466636274E1
1.585232500E1,-1.133383118E1,-1.476050537E1,1.660197601E0,1.868380325E1
1.586240000E1,-1.430679886E1,-1.723351273E1,2.022294617E0,2.248928923E1
1.587247600E1,-1.662233368E1,-1.976669495E1,2.056124268E0,2.590852858E1
1.588255100E1,-1.759501099E1,-2.228625549E1,2.374063110E0,2.849381988E1
1.589262600E1,-1.816697159E1,-2.476899261E1,3.143912201E0,3.087759764E1
1.590270200E1,-1.822969116E1,-2.713961288E1,3.475323029E0,3.287792721E1
1.591277700E1,-1.764934799E1,-2.896566559E1,3.253634033E0,3.407484999E1
1.592285300E1,-1.646066986E1,-2.934782089E1,3.384312286E0,3.381866072E1
1.593292800E1,-1.531375488E1,-2.846196304E1,3.738026733E0,3.253563082E1
1.594300300E1,-1.487681351E1,-2.703318420E1,4.564607849E0,3.119211877E1
1.595307900E1,-1.470212677E1,-2.539948151E1,5.777984619E0,2.991105646E1
1.596315400E1,-1.432790497E1,-2.361564102E1,6.668931885E0,2.841587609E1
1.597322900E1,-1.359877121E1,-2.178345108E1,6.897805939E0,2.658994258E1
1.598330500E1,-1.288475601E1,-2.014151550E1,6.638096008E0,2.481455022E1
1.599338000E1,-1.232132767E1,-1.837833206E1,5.846991119E0,2.288592384E1
1.600345600E1,-1.189067322E1,-1.609393250E1,4.482279053E0,2.050594056E1
1.601353100E1,-1.123518631E1,-1.333936066E1,2.955454102E0,1.768905490E1
1.602360600E1,-1.039902512E1,-1.044468018E1,1.589993591E0,1.482427560E1
1.603368200E1,-9.520951080E0,-7.628885651E0,7.099736023E-1,1.222098475E1
1.604375700E1,-8.354277191E0,-4.880900116E0,1.902543640E-1,9.677465063E0
1.605383300E1,-7.028484192E0,-2.448308716E0,-1.480421448E-1,7.444173700E0
1.606390800E1,-5.535488892E0,-4.543052673E-1,-2.874023438E-1,5.561531323E0
1.607398300E1,-4.065096588E0,1.123413849E0,-8.077203369E-1,4.294121690E0
1.608405900E1,-2.202968903E0,2.001188507E0,-1.563049622E0,3.361688794E0
1.609413400E1,-1.021176453E0,2.557731171E0,-8.505313110E-1,2.882393727E0
1.610421000E1,-1.086740112E-1,2.805765381E0,-7.716453552E-1,2.911969431E0
1.611428500E1,1.087189178E0,2.402653656E0,-1.554517365E0,3.061249604E0
1.612436000E1,1.843715973E0,1.799258423E0,-1.894610138E0,3.197837869E0
1.613443600E1,2.157912598E0,1.605112152E0,-1.640738068E0,3.150395722E0
1.614451100E1,2.586172028E0,1.305285645E0,-1.703008575E0,3.360400955E0
1.615458600E1,2.887794800E0,6.027964783E-1,-2.030527496E0,3.581307626E0
1.616466200E1,2.908152466E0,9.490264893E-2,-2.267185364E0,3.688697162E0
1.617473700E1,2.765349426E0,-7.903564453E-2,-1.928589478E0,3.372367337E0
1.618481300E1,2.237247620E0,-1.772314453E-1,-9.653425598E-1,2.443066547E0
1.619488800E1,1.616189117E0,-3.004252625E-1,-1.285826111E-1,1.648895415E0
1.620496300E1,1.268162842E0,-6.337820435E-1,2.436932373E-1,1.438507235E0
1.621503900E1,1.049467621E0,-9.232800293E-1,6.047424316E-1,1.523004172E0
1.622511400E1,6.804849243E-1,-1.048719177E0,1.145717468E0,1.695741773E0
1.623519000E1,2.299218750E-1,-8.343649292E-1,1.635798340E0,1.850639109E0
1.624526500E1,-3.466790771E-1,-3.511697388E-1,1.894460449E0,1.957673865E0
1.625534000E1,-8.660989380E-1,1.893562317E-1,1.925296326E0,2.119610600E0
1.626541600E1,-1.136736145E0,8.424481201E-1,1.902244263E0,2.370742739E0
1.627549100E1,-1.265767822E0,1.519939270E0,1.833986206E0,2.697385580E0
1.628556600E1,-1.473386078E0,1.922452240E0,1.710193634E0,2.965038181E0
1.629564200E1,-1.713486786E0,1.828896790E0,1.439556427E0,2.890194308E0
1.630571700E1,-1.819316711E0,1.208287354E0,9.767189026E-1,2.392457197E0
1.631579300E1,-1.625170441E0,3.097059631E-1,3.254232788E-1,1.686118933E0
1.632586800E1,-1.477427673E0,-5.969586182E-1,-2.517764282E-1,1.613240060E0
1.633594300E1,-1.610051880E0,-1.559756470E0,-6.551875305E-1,2.335460983E0
1.634601900E1,-1.801354065E0,-2.684667206E0,-1.011296997E0,3.387482264E0
1.635609421E1,-2.094893646E0,-3.664529572E0,-1.204694824E0,4.389606587E0
1.636617021E1,-2.837349701E0,-4.568350067E0,-1.313817902E0,5.535927487E0
1.637624521E1,-3.936064911E0,-5.858966217E0,-1.272054749E0,7.172044018E0
1.638632021E1,-5.772745514E0,-8.063132629E0,-1.132993927E0,9.981100831E0
1.639639621E1,-7.786507874E0,-1.078851517E1,-4.549040222E-1,1.331272707E1
1.640647121E1,-1.016685791E1,-1.322649536E1,1.769320679E-1,1.668341944E1
1.641654621E1,-1.274090515E1,-1.592553268E1,4.035607910E-1,2.039892440E1
1.642662221E1,-1.523067764E1,-1.917482574E1,5.469625854E-1,2.449380844E1
1.643669721E1,-1.817041443E1,-2.304712326E1,6.622229004E-1,2.935596005E1
1.644677321E1,-2.051349197E1,-2.722059448E1,7.813751221E-1,3.409361618E1
1.645684821E1,-2.155008636E1,-3.085743164E1,1.115480347E0,3.765410477E1
1.646692321E1,-2.142255157E1,-3.343776581E1,1.930535431E0,3.975848168E1
1.647699921E1,-2.019690033E1,-3.441194000E1,3.129542084E0,4.002362342E1
1.648707421E1,-1.858505219E1,-3.326891693E1,4.499942322E0,3.837283518E1
1.649715021E1,-1.765518585E1,-3.062706070E1,5.591472473E0,3.579087871E1
1.650722521E1,-1.734862335E1,-2.735396713E1,5.997727661E0,3.294217642E1
1.651730021E1,-1.692964462E1,-2.390304337E1,5.719905396E0,2.984435737E1
1.652737621E1,-1.583167786E1,-2.036185730E1,5.024152222E0,2.627716427E1
1.653745121E1,-1.445843353E1,-1.703577393E1,3.977378998E0,2.269544970E1
1.654752721E1,-1.334669540E1,-1.433119812E1,2.903811493E0,1.979771802E1
1.655760221E1,-1.249960693E1,-1.192001221E1,2.349065094E0,1.743114946E1
1.656767721E1,-1.178469360E1,-9.364975433E0,2.340083771E0,1.523344217E1
1.657775321E1,-1.094134735E1,-6.619235229E0,2.562521210E0,1.304200413E1
