"Time (s)","Acceleration x (m/s^2)","Acceleration y (m/s^2)","Acceleration z (m/s^2)","Absolute acceleration (m/s^2)"
-1.865833328E-4,-2.899919586E0,2.130669250E0,7.114106140E0,7.972439478E0
9.785416667E-3,-2.613714752E0,1.849254456E0,6.697971497E0,7.423885035E0
1.975641667E-2,-2.453398132E0,1.502725067E0,6.926695862E0,7.500430693E0
2.972741667E-2,-2.408192139E0,1.290316772E0,7.736062775E0,8.204326542E0
3.969941667E-2,-2.052531738E0,1.272653503E0,9.088650055E0,9.404046645E0
4.967041667E-2,-1.820963287E0,8.783734131E-1,1.089449478E1,1.108049925E1
5.964141666E-2,-2.119891663E0,6.283932495E-1,1.064496368E1,1.087216954E1
6.961341666E-2,-2.189945984E0,7.816744995E-1,9.761201477E0,1.003433768E1
7.958441667E-2,-1.734892273E0,1.035546570E0,9.039402466E0,9.262451341E0
8.955541667E-2,-1.243164825E0,8.072712708E-1,9.738897858E0,9.851054622E0
9.952741667E-2,-7.683522034E-1,2.339634705E-1,9.350605316E0,9.385037229E0
1.094984167E-1,-4.894821167E-1,-3.110531616E-1,9.822274475E0,9.839381214E0
1.194694167E-1,-6.051914978E-1,2.929408264E-1,1.015009277E1,1.017233771E1
1.294414167E-1,-8.210426331E-1,4.698728943E-1,1.055604858E1,1.059835144E1
1.394124167E-1,-9.723779297E-1,7.566764832E-1,1.093266541E1,1.100187489E1
1.493834167E-1,-8.069718933E-1,9.740245056E-1,1.023242157E1,1.031030448E1
1.593544167E-1,-6.680607605E-1,6.292913818E-1,9.773475952E0,9.816473145E0
1.693264167E-1,-6.203100586E-1,1.579216003E-1,9.364376678E0,9.386227910E0
1.792974167E-1,-8.193960571E-1,-1.422042847E-1,8.861272888E0,8.900212871E0
1.892684167E-1,-1.040336609E0,-1.204994202E-1,9.585167542E0,9.642212255E0
1.992404167E-1,-7.695497131E-1,-7.095245361E-2,1.001686981E1,1.004663734E1
2.092114167E-1,-4.095483398E-1,-1.754351807E-1,1.004905289E1,1.005892496E1
2.191824167E-1,-4.355941772E-2,-1.061293030E-1,9.924811249E0,9.925474254E0
2.291544167E-1,2.912942505E-1,-1.803749084E-1,9.623487854E0,9.629584930E0
2.391254167E-1,1.977388000E-1,-8.068222046E-1,1.063283890E1,1.066523913E1
2.490964167E-1,4.501139832E-1,-1.129251709E0,8.674760742E0,8.759525441E0
2.590684167E-1,8.078700256E-1,-1.124761047E0,7.926167450E0,8.046233394E0
2.690394167E-1,6.578819275E-1,-1.225800934E0,9.100774841E0,9.206492235E0
2.790104167E-1,4.273612976E-1,-7.548802185E-1,8.736133118E0,8.779094696E0
2.889814167E-1,-9.879455566E-2,-5.495072937E-1,8.941955109E0,8.959368270E0
2.989534167E-1,-7.080276489E-1,-1.396895142E0,8.239166565E0,8.386684975E0
3.089244167E-1,-8.493338013E-1,-2.045196991E0,6.168223114E0,6.553714597E0
3.188954167E-1,-4.534071350E-1,-1.519340515E0,6.913523254E0,7.093009053E0
3.288674167E-1,4.384382629E-1,-1.582209778E-1,6.547983398E0,6.564552428E0
3.388384167E-1,1.836081848E0,1.215622101E0,5.103786621E0,5.558558403E0
3.488094167E-1,3.019371185E0,2.219135284E0,5.456153870E0,6.618971130E0
3.587814167E-1,3.350033569E0,2.547103271E0,5.960904236E0,7.296769100E0
3.687524167E-1,3.244353333E0,2.230960693E0,6.281986542E0,7.413930744E0
3.787234167E-1,3.058140564E0,1.371148682E0,6.890022125E0,7.661897761E0
3.886954167E-1,2.348616028E0,5.170248413E-1,8.525072021E0,8.857774264E0
3.986664167E-1,9.005273438E-1,1.242416382E-1,1.012135254E1,1.016209441E1
4.086374167E-1,-6.092330933E-1,-7.080276489E-2,1.134655472E1,1.136311938E1
4.186084167E-1,-1.331331482E0,-2.881507874E-1,1.243958176E1,1.251393897E1
4.285804167E-1,-6.960525513E-1,-8.538244629E-1,9.732012177E0,9.794159809E0
4.385514167E-1,1.158740387E0,-1.055455170E0,8.377628632E0,8.522988114E0
4.485224167E-1,2.040706329E0,-5.408253479E-1,6.666237488E0,6.992545790E0
4.584944167E-1,2.067650299E0,4.378395081E-1,5.188510437E0,5.602456760E0
4.684654167E-1,2.256707153E0,1.202449493E0,3.953877869E0,4.708690068E0
4.784364167E-1,2.158960419E0,1.760938110E0,3.331921234E0,4.343237528E0
4.884084167E-1,1.881287842E0,2.062710571E0,3.838018799E0,4.745988532E0
4.983794167E-1,1.053359528E0,1.909878387E0,5.574258270E0,5.985779566E0
5.083504167E-1,-4.724176025E-1,1.660496979E0,8.820258179E0,8.987623877E0
5.183224167E-1,-5.902226257E-1,1.478625183E0,1.011476624E1,1.023929642E1
5.282934167E-1,1.075214081E0,2.345622253E-1,9.991722107E0,1.005214482E1
5.382644167E-1,1.377285919E0,-7.045848083E-1,1.183244431E1,1.193315107E1
5.482354167E-1,1.259181519E0,-3.707789612E-1,1.220292389E1,1.227331930E1
5.582074167E-1,1.216520233E0,1.550775146E-1,1.093116852E1,1.099974616E1
5.681784167E-1,7.774832153E-1,3.245251465E-1,9.158105621E0,9.196776353E0
5.781494167E-1,-1.561253357E-1,1.598675537E-1,7.614814911E0,7.618092864E0
5.881214167E-1,-6.851252747E-1,4.760101318E-1,6.803052979E0,6.854014307E0
5.980924167E-1,-6.953041077E-1,8.602610779E-1,7.583979034E0,7.664217828E0
6.080634167E-1,-2.151026917E-1,9.024732971E-1,8.823551331E0,8.872191685E0
6.180354167E-1,5.733078003E-2,6.348298645E-1,9.087751923E0,9.110078528E0
6.280064167E-1,-1.212478638E-2,2.085163879E-1,1.071112610E1,1.071316239E1
6.379774167E-1,2.329156494E-1,-3.767665100E-1,1.316407516E1,1.317152526E1
6.479486667E-1,9.722282410E-1,-9.825567627E-1,1.262100449E1,1.269647194E1
6.579206667E-1,7.117698669E-1,-1.271905060E0,1.216699860E1,1.225398766E1
6.678916667E-1,7.399113464E-1,-1.213975525E0,1.385039795E1,1.392317237E1
6.778626667E-1,1.716181183E0,-5.533992004E-1,1.631053207E1,1.640990509E1
6.878346667E-1,2.210303650E0,1.342707825E-1,1.838581650E1,1.851868568E1
6.978056667E-1,2.110012207E0,-1.035845947E-1,2.044508423E1,2.055393759E1
7.077766667E-1,1.992805939E0,-9.160949707E-1,2.228281265E1,2.239049453E1
7.177486667E-1,2.287992096E0,-1.614991608E0,2.356938721E1,2.373518736E1
7.277196667E-1,2.828967133E0,-1.794318695E0,2.398851562E1,2.422130295E1
7.376906667E-1,3.006947021E0,-1.344055023E0,2.297781738E1,2.321267555E1
7.476616667E-1,3.016078033E0,-4.111949158E-1,2.086121887E1,2.108213132E1
7.576336667E-1,3.228636017E0,3.582051086E-1,1.929412766E1,1.956567820E1
7.676046667E-1,3.667673035E0,1.220561829E0,1.836905136E1,1.877135170E1
7.775756667E-1,4.333937531E0,1.692380676E0,1.736329285E1,1.797584783E1
7.875476667E-1,4.874014435E0,2.196232910E0,1.620799530E1,1.706688511E1
7.975186667E-1,5.381608887E0,2.813100128E0,1.531854492E1,1.647826038E1
8.074896667E-1,5.754483490E0,3.056793365E0,1.461800171E1,1.600450061E1
8.174616667E-1,5.796396332E0,2.722239075E0,1.414169220E1,1.552405405E1
8.274326667E-1,5.112767944E0,1.883233795E0,1.362616425E1,1.467512581E1
8.374036667E-1,3.715124359E0,6.264472961E-1,1.341974350E1,1.393858317E1
8.473746667E-1,2.252366180E0,-7.149133301E-1,1.312844925E1,1.333943155E1
8.573466667E-1,1.044378204E0,-1.534608765E0,1.206012085E1,1.220214181E1
8.673176667E-1,-1.627116394E-1,-1.647174683E0,1.011446686E1,1.024900480E1
8.772886667E-1,-1.407523041E0,-1.391955414E0,7.613467712E0,7.866609917E0
8.872606667E-1,-2.258503418E0,-7.455995178E-1,5.299579468E0,5.808812173E0
8.972316667E-1,-2.228715363E0,1.877096558E-1,3.820654907E0,4.427167379E0
9.072026667E-1,-2.086211700E0,7.696994019E-1,2.953208771E0,3.696776768E0
9.171746667E-1,-1.947899323E0,1.075812836E0,2.047292633E0,3.023754645E0
9.271456667E-1,-1.655407562E0,1.289568329E0,1.858535156E0,2.803125684E0
9.371166667E-1,-1.361867981E0,1.424288177E0,1.705553284E0,2.606183649E0
9.470876667E-1,-1.341210938E0,1.475032654E0,1.063388672E0,2.259505162E0
9.570596667E-1,-1.243164825E0,1.213376770E0,2.395019531E-1,1.753597204E0
9.670306667E-1,-1.228495331E0,8.851094055E-1,-3.664379883E-1,1.557849876E0
9.770016667E-1,-1.077010345E0,6.486012268E-1,-8.737330627E-1,1.531027204E0
9.869736667E-1,-6.879693604E-1,6.807843018E-1,-1.894011383E0,2.126981012E0
9.969446667E-1,-4.927752686E-1,7.286846924E-1,-2.925815735E0,3.055193375E0
1.006915667E0,-5.074447632E-2,9.289682007E-1,-3.732637939E0,3.846835441E0
1.016887667E0,8.184979248E-1,1.944007416E0,-3.550466766E0,4.129760035E0
1.026858667E0,6.976991272E-1,2.418969727E0,-3.173700256E0,4.050996412E0
1.036829667E0,2.827619934E-1,1.955533447E0,-2.152673492E0,2.921997360E0
1.046800667E0,2.264790344E-1,1.527872772E0,-1.037642212E0,1.860749666E0
1.056772667E0,3.128494263E-1,1.277144165E0,2.862048340E-1,1.345691342E0
1.066743667E0,1.496887207E-1,7.566764832E-1,1.555415497E0,1.736169168E0
1.076714667E0,-6.210585022E-1,2.430944824E-1,2.389630737E0,2.480956197E0
1.086686667E0,-9.804611206E-1,-2.435435486E-1,2.813100128E0,2.989004818E0
1.096657667E0,-7.164102173E-1,-6.095324707E-1,2.721490631E0,2.879459096E0
1.106628667E0,-6.406677246E-2,-5.111869812E-1,2.868784332E0,2.914676693E0
1.116600667E0,3.552113342E-1,-3.466790771E-1,3.783232727E0,3.815653462E0
1.126571667E0,6.535409546E-1,8.681945801E-2,5.383704529E0,5.423921815E0
1.136542667E0,1.053958282E0,-1.510359192E-1,8.299191742E0,8.367211213E0
1.146513667E0,1.273102570E0,-1.256337433E0,1.237731125E1,1.250587892E1
1.156485667E0,1.633852386E0,-2.698887634E0,1.654254959E1,1.684070708E1
1.166456667E0,2.692151642E0,-3.626957703E0,2.084864502E1,2.133233465E1
1.176427667E0,3.196602631E0,-3.546574860E0,2.361953293E1,2.409727780E1
1.186399667E0,2.864593048E0,-1.563199310E0,2.412353485E1,2.434326229E1
1.196370667E0,3.551364899E0,1.713337097E0,2.617516846E1,2.647049604E1
1.206341667E0,5.814508667E0,2.679577789E0,3.325858841E1,3.386919472E1
1.216312667E0,7.410489807E0,1.719923401E0,3.881578217E1,3.955424681E1
1.226284667E0,8.201295319E0,1.187779999E0,4.013199509E1,4.097864195E1
1.236255667E0,9.031918030E0,1.600471802E0,3.935585907E1,4.041065078E1
1.246226667E0,9.765093384E0,2.255958710E0,3.678241058E1,3.812338032E1
1.256198667E0,9.491761780E0,2.899620209E0,3.331277573E1,3.475978086E1
1.266169667E0,8.263116760E0,3.227139130E0,2.947251160E1,3.077860402E1
1.276140667E0,6.604715424E0,2.930156708E0,2.564826416E1,2.664660464E1
1.286112667E0,4.846621399E0,1.992207184E0,2.208821732E1,2.270127689E1
1.296083667E0,3.224295044E0,9.641450500E-1,1.821936264E1,1.852756944E1
1.306054667E0,1.834734650E0,1.375639343E-1,1.442280762E1,1.453968895E1
1.316025667E0,7.620652771E-1,-2.499801636E-1,1.130943192E1,1.133783418E1
1.325997667E0,-3.757186890E-2,-1.990859985E-1,8.659342804E0,8.661712572E0
1.335968667E0,-7.997868347E-1,-2.179467773E-1,6.119873657E0,6.175760144E0
1.345939667E0,-1.730551300E0,-4.718188477E-1,3.340004425E0,3.791180606E0
1.355911667E0,-2.545905762E0,-3.201841736E-1,3.787124634E-2,2.566240106E0
1.365882667E0,-2.685415649E0,3.279679871E-1,-2.934347992E0,3.991167542E0
1.375853667E0,-2.784808960E0,8.783734131E-1,-5.634433136E0,6.346143519E0
1.385824667E0,-2.307751007E0,1.457219696E0,-8.248896332E0,8.688699249E0
1.395796667E0,-1.555714874E0,2.141446838E0,-8.369844818E0,8.778402224E0
1.405767667E0,-1.184187469E0,3.077151031E0,-8.056995392E0,8.705534629E0
1.415738667E0,-1.382225647E0,3.197051697E0,-8.451874237E0,9.141436726E0
1.425710667E0,-1.435514832E0,1.661095734E0,-8.120313721E0,8.411862861E0
1.435681667E0,-1.174607391E0,4.819976807E-1,-6.513105927E0,6.635704416E0
1.445652667E0,-1.120420074E0,2.375559998E-1,-4.558620300E0,4.700297122E0
1.455624667E0,-8.628057861E-1,3.140469360E-1,-3.171604614E0,3.301838144E0
1.465595667E0,-4.652325439E-1,4.498146057E-1,-2.085612946E0,2.183702328E0
1.475566667E0,-1.294807434E-1,5.739065552E-1,-1.189576263E0,1.327111783E0
1.485537667E0,3.068618774E-2,5.827381897E-1,-5.920188904E-1,8.312711991E-1
1.495509667E0,8.337661743E-2,6.065386963E-1,1.676513672E-1,6.347817195E-1
1.505480667E0,1.136137390E-1,4.849914551E-1,9.560618591E-1,1.078044095E0
1.515451667E0,3.968247986E-1,4.360432434E-1,1.273102570E0,1.402994577E0
1.525423667E0,5.646258545E-1,4.152365112E-1,1.805096283E0,1.936387437E0
1.535394667E0,6.511459351E-1,2.704875183E-1,2.834655304E0,2.921031533E0
1.545365667E0,5.867797852E-1,-1.191522217E-1,3.381917267E0,3.434511926E0
1.555336667E0,3.770658875E-1,-6.135740662E-1,3.962859192E0,4.027766725E0
1.565308667E0,-2.859054565E-2,-1.128203888E0,4.301754456E0,4.447330978E0
1.575279667E0,-1.694476318E-1,-1.324445801E0,4.299209747E0,4.501785605E0
1.585250667E0,1.448986816E-1,-1.256636810E0,4.213887177E0,4.399656445E0
1.595222667E0,7.119195557E-1,-1.027463379E0,4.164489899E0,4.348043993E0
1.605193667E0,1.259929962E0,-3.357518005E-1,4.329746246E0,4.521819914E0
1.615164667E0,1.415905609E0,2.414479065E-1,4.626578979E0,4.844411093E0
1.625135667E0,1.380429382E0,2.369572449E-1,4.977898407E0,5.171190053E0
1.635107667E0,1.291065216E0,-5.539979553E-1,6.465504913E0,6.616382464E0
1.645078833E0,1.141226807E0,-1.873653717E0,9.683363342E0,9.928771449E0
1.655049833E0,7.960446167E-1,-3.194057922E0,1.407508072E1,1.445488119E1
1.665021833E0,2.025737457E0,-3.863914948E0,1.961101868E1,2.009043316E1
1.674992833E0,2.845283203E0,-2.292333069E0,2.296823730E1,2.325704952E1
1.684963833E0,1.806593170E0,1.308129730E0,2.218356903E1,2.229541920E1
1.694935833E0,2.341430969E0,4.209995270E0,2.227802261E1,2.279290790E1
1.704906833E0,5.232818298E0,5.982758789E0,2.744857040E1,2.857621051E1
1.714877833E0,6.681505737E0,6.506669312E0,3.440056366E1,3.564236306E1
1.724848833E0,7.394772491E0,5.887407074E0,3.812347183E1,3.927777141E1
1.734820833E0,7.551346893E0,4.287683716E0,3.983785675E1,4.077329889E1
1.744791833E0,7.955356750E0,2.642754364E0,4.050067841E1,4.135911995E1
1.754762833E0,7.854616241E0,9.868977356E-1,4.064617584E1,4.140990913E1
1.764734833E0,6.607858887E0,-2.624043274E-1,3.994653076E1,4.049022073E1
1.774705833E0,4.371359711E0,-4.040098572E-1,3.610881134E1,3.637469266E1
1.784676833E0,2.294279022E0,-3.498225403E-1,3.055296478E1,3.064098153E1
1.794647833E0,4.848417664E-1,-2.555186462E-1,2.423190948E1,2.423810633E1
1.804619833E0,-8.183482361E-1,-2.246827698E-1,1.767539383E1,1.769575438E1
1.814590833E0,-1.313368835E0,-3.034190369E-1,1.236608459E1,1.243933475E1
1.824561833E0,-1.472338257E0,-2.137554932E-1,8.980724487E0,9.103124940E0
1.834533833E0,-1.504072266E0,1.886077881E-1,6.650669861E0,6.821232724E0
1.844504833E0,-1.548679504E0,4.071533203E-1,4.743186493E0,5.006196175E0
1.854475833E0,-1.735640717E0,3.376977539E-1,3.196752319E0,3.653178597E0
1.864446833E0,-2.032772827E0,2.540217590E-1,6.610253906E-1,2.152590762E0
1.874418833E0,-2.238894196E0,3.366499329E-1,-2.545157318E0,3.406435992E0
1.884389833E0,-2.360591125E0,3.999682617E-1,-5.507796478E0,6.005679572E0
1.894360833E0,-1.985620880E0,7.885601807E-1,-7.772886200E0,8.061158559E0
1.904332833E0,-1.602268066E0,1.731299744E0,-8.553812256E0,8.873126048E0
1.914303833E0,-5.026547241E-1,2.669997711E0,-8.629255371E0,9.046855686E0
1.924274833E0,4.119433594E-1,2.832559662E0,-7.032525787E0,7.592727476E0
1.934245833E0,8.996292114E-2,1.848805389E0,-6.116281128E0,6.390232353E0
1.944217833E0,-1.691482544E-1,7.662565613E-1,-6.375541992E0,6.423651294E0
1.954188833E0,-7.113208008E-1,5.433700562E-2,-5.774841156E0,5.818738709E0
1.964159833E0,-1.384920044E0,-3.820056152E-1,-4.409680023E0,4.637802252E0
1.974131833E0,-1.544937286E0,-6.340814209E-1,-3.001408539E0,3.434726144E0
1.984102833E0,-1.405128021E0,-8.280780029E-1,-1.851799164E0,2.467642210E0
1.994073833E0,-1.251098328E0,-9.707313538E-1,-8.261320496E-1,1.786074061E0
2.004044833E0,-7.821235657E-1,-7.704478455E-1,-1.335223389E-1,1.105954506E0
2.014016833E0,-1.749861145E-1,-2.330653381E-1,1.634600830E-1,3.341538431E-1
2.023987833E0,3.233276367E-1,2.863545227E-1,3.662882996E-1,5.663098019E-1
2.033958833E0,5.857319641E-1,4.861889648E-1,9.794132996E-1,1.240448328E0
2.043930833E0,6.408174133E-1,4.074526978E-1,1.227896576E0,1.443743280E0
2.053901833E0,6.090834045E-1,1.968406677E-1,1.415157166E0,1.553189829E0
2.063872833E0,5.453160095E-1,-1.305285645E-1,1.750160522E0,1.837789191E0
2.073843833E0,1.645079041E-1,-4.408332825E-1,1.595083008E0,1.663035368E0
2.083815833E0,9.849517822E-2,-5.821394348E-1,1.735191650E0,1.832887799E0
2.093786833E0,1.287322998E-2,-5.807922363E-1,1.785636749E0,1.877760353E0
2.103757833E0,-2.543211365E-1,-6.947053528E-1,2.068099365E0,2.196435693E0
2.113729833E0,-2.163002014E-1,-7.030879211E-1,2.268532562E0,2.384818313E0
2.123700833E0,1.710942078E-1,-4.056564331E-1,2.528691559E0,2.566731651E0
2.133671833E0,5.989045715E-1,-5.987548828E-2,3.027454376E0,3.086705648E0
2.143642833E0,8.313711548E-1,-6.436614990E-3,3.079096985E0,3.189366343E0
2.153614833E0,8.394543457E-1,-3.592529297E-3,3.617527313E0,3.713650545E0
2.163585833E0,8.222401428E-1,-3.345542908E-1,5.016368408E0,5.094306374E0
2.173556833E0,9.979747009E-1,-1.098565521E0,7.368427277E0,7.516416715E0
2.183528833E0,9.566606140E-1,-1.830393677E0,1.055904236E1,1.075913175E1
2.193499833E0,1.392404480E0,-1.622775421E0,1.415965485E1,1.432019608E1
2.203470833E0,2.459086304E0,-7.015910339E-1,1.755833725E1,1.774357750E1
2.213441833E0,5.542524261E0,1.852547607E0,2.134276749E1,2.212838069E1
2.223413833E0,1.068223618E1,5.108277283E0,3.076552277E1,3.296546765E1
2.233384833E0,1.557945236E1,6.342610474E0,4.389846268E1,4.701088245E1
2.243355833E0,1.761985931E1,5.203179932E0,5.029316483E1,5.354376669E1
2.253327833E0,1.552511536E1,2.828218689E0,4.913622070E1,5.160810220E1
2.263298833E0,1.211475723E1,1.584904175E0,4.420203140E1,4.585955565E1
2.273269833E0,1.004980133E1,8.415499878E-1,4.111350403E1,4.233233902E1
2.283241833E0,7.622898102E0,-2.700384521E-1,3.858825531E1,3.933490745E1
2.293212833E0,5.253475342E0,-1.310075684E0,3.383593781E1,3.426639737E1
2.303183833E0,3.718118134E0,-1.207838287E0,2.829670670E1,2.856548417E1
2.313154833E0,3.746409302E0,-4.146377563E-2,2.392669418E1,2.421825750E1
2.323126833E0,4.422702942E0,1.338516541E0,2.028880920E1,2.080835666E1
2.333097833E0,4.511019287E0,2.109263763E0,1.668116135E1,1.740860226E1
2.343068833E0,3.545976105E0,2.088906097E0,1.268177811E1,1.333285308E1
2.353039833E0,2.402204590E0,1.935475159E0,9.083410950E0,9.592966458E0
2.363011833E0,1.350940704E0,1.936223602E0,6.214776306E0,6.648116061E0
2.372982833E0,2.918930054E-2,1.910626831E0,2.966980133E0,3.529067584E0
2.382953833E0,-1.402283936E0,1.737886047E0,4.593946838E-1,2.279844649E0
2.392925833E0,-2.879861298E0,8.626560974E-1,-3.737727356E-1,3.029436036E0
2.402896833E0,-4.532424774E0,2.200424194E-1,-2.086810455E0,4.994604176E0
2.412867833E0,-5.908363495E0,4.340972900E-3,-4.113146667E0,7.199080048E0
2.422838833E0,-6.079757080E0,8.951385498E-2,-6.471941528E0,8.880173761E0
2.432810833E0,-4.450545044E0,6.894662476E-1,-7.831564178E0,9.034163623E0
2.442781833E0,-2.638862457E0,1.680106201E0,-6.762187958E0,7.450740761E0
2.452752833E0,-2.009870453E0,2.381846924E0,-7.097490692E0,7.751590039E0
2.462724833E0,-1.970502319E0,2.267933807E0,-8.366401978E0,8.889492966E0
2.472695833E0,-1.909579010E0,1.815275116E0,-8.830736389E0,9.215401289E0
2.482666833E0,-1.917662201E0,1.670675812E0,-8.007298737E0,8.401512902E0
2.492637833E0,-1.858385468E0,1.305884399E0,-5.612578583E0,6.054747638E0
2.502609833E0,-1.866019592E0,3.860472107E-1,-2.480042725E0,3.127566703E0
2.512580833E0,-2.062261505E0,-4.002676392E-1,2.104623413E-1,2.111262915E0
2.522551833E0,-2.234104156E0,-7.855664063E-1,2.629881134E0,3.539012679E0
2.532523833E0,-2.295177155E0,-1.123563538E0,4.157753906E0,4.880281830E0
2.542494833E0,-2.182012482E0,-1.350940704E0,4.726571045E0,5.378354126E0
2.552465833E0,-1.756746826E0,-1.194366302E0,4.894372101E0,5.335498902E0
2.562436833E0,-1.335373077E0,-8.081694031E-1,4.206851807E0,4.487088272E0
2.572408833E0,-7.288343811E-1,-4.326004028E-1,3.232976990E0,3.342227233E0
2.582379833E0,-7.544311523E-2,2.275268555E-2,2.474653931E0,2.475908202E0
2.592350833E0,3.538641357E-1,4.254153442E-1,1.968406677E0,2.044706064E0
2.602322833E0,6.186634827E-1,6.104306030E-1,1.365011444E0,1.618217003E0
2.612293833E0,6.973997498E-1,6.683601379E-1,1.185534668E0,1.529236455E0
2.622264833E0,5.126838684E-1,5.593867493E-1,1.520388336E0,1.699217166E0
2.632235833E0,2.409988403E-2,1.862127686E-1,2.013912048E0,2.022646222E0
2.642207833E0,-4.550537109E-1,-2.252815247E-1,2.578687592E0,2.628203824E0
2.652179042E0,-4.852908325E-1,-5.551954651E-1,3.345542908E0,3.425843917E0
2.662150042E0,3.278182983E-2,-6.518943787E-1,4.510270844E0,4.557256193E0
2.672122042E0,8.333171082E-1,-5.445675659E-1,5.933361511E0,6.016290390E0
2.682093042E0,1.802252197E0,-7.253915405E-1,8.260871429E0,8.486241962E0
2.692064042E0,2.835254059E0,-9.473799133E-1,1.091769653E1,1.131955352E1
2.702035042E0,4.114493866E0,-1.303639069E0,1.346225510E1,1.413721496E1
2.712007042E0,5.519023132E0,-2.212698669E0,1.653252045E1,1.756928809E1
2.721978042E0,6.157295837E0,-2.921624451E0,1.986384293E1,2.100048660E1
2.731949042E0,7.136260071E0,-2.299218750E0,2.157897629E1,2.284436106E1
2.741921042E0,9.862540741E0,-4.751119995E-1,2.441153595E1,2.633284126E1
2.751892042E0,1.345926132E1,2.278412018E0,3.085593475E1,3.374065183E1
2.761863042E0,1.628298935E1,2.834355927E0,3.858765656E1,4.197828670E1
2.771834042E0,1.748154694E1,1.453627167E0,4.352753403E1,4.692934832E1
2.781806042E0,1.752795044E1,-2.797682190E-1,4.471651154E1,4.802992526E1
2.791777042E0,1.669208862E1,-1.887574768E0,4.200370285E1,4.523825609E1
2.801748042E0,1.535417084E1,-2.283202057E0,3.781421494E1,4.087637979E1
2.811720042E0,1.377540390E1,-1.893712006E0,3.403577225E1,3.676658388E1
2.821691042E0,1.220906113E1,-1.628164215E0,3.104439285E1,3.339859907E1
2.831662042E0,1.085797073E1,-1.366508331E0,2.891671738E1,3.091826996E1
2.841633042E0,9.495953064E0,-1.166524200E0,2.612008301E1,2.781712853E1
2.851605042E0,7.927664337E0,-1.226250000E0,2.174842392E1,2.318071383E1
2.861576042E0,5.927373962E0,-1.362017670E0,1.644944321E1,1.753776029E1
2.871547042E0,4.382436676E0,-9.285191345E-1,1.140643021E1,1.225457258E1
2.881518042E0,3.556903381E0,-5.927673340E-2,7.212601318E0,8.042182115E0
2.891490042E0,3.371738434E0,8.539741516E-1,3.423830109E0,4.880625424E0
2.901461042E0,3.174897766E0,1.435514832E0,2.427951050E-1,3.492796604E0
2.911432042E0,2.409988403E0,1.763482819E0,-2.344424744E0,3.796609426E0
2.921404042E0,8.851094055E-1,1.675166473E0,-4.627327423E0,5.000176042E0
2.931375042E0,-7.991880798E-1,1.064137115E0,-6.773414612E0,6.902914956E0
2.941346042E0,-2.627037048E0,2.712359619E-1,-8.582103424E0,8.979275682E0
2.951317042E0,-3.792363739E0,-5.565426636E-1,-9.272168427E0,1.003318842E1
2.961289042E0,-4.691843262E0,-1.176553345E0,-9.142687683E0,1.034342347E1
2.971260042E0,-4.375550995E0,-1.539847870E0,-8.389753418E0,9.586685579E0
2.981231042E0,-3.696862335E0,-1.510508881E0,-7.101681976E0,8.147534296E0
2.991203042E0,-3.244802399E0,-1.328038330E0,-6.383625183E0,7.283069332E0
3.001174042E0,-2.649789734E0,-1.031654663E0,-5.909411316E0,6.557959978E0
3.011145042E0,-2.164648590E0,-5.748046875E-1,-5.420078888E0,5.864585160E0
3.021116042E0,-1.573677521E0,-1.383123779E-1,-4.822970581E0,5.075099652E0
3.031088042E0,-9.928852844E-1,8.517288208E-2,-3.891457672E0,4.017028556E0
3.041059042E0,-6.864724731E-1,1.245410156E-1,-2.682122498E0,2.771377999E0
3.051030042E0,-6.456074524E-1,1.351689148E-1,-1.456321564E0,1.598734536E0
3.061002042E0,-6.801855469E-1,2.038760376E-1,-3.885919189E-1,8.094575321E-1
3.070973042E0,-6.355783081E-1,2.194436646E-1,5.613327026E-1,8.759050809E-1
3.080944042E0,-7.580236816E-1,4.251159668E-2,1.366957397E0,1.563643074E0
3.090915042E0,-8.710386658E-1,-3.936813354E-2,1.986968079E0,2.169861828E0
3.100887042E0,-1.003962250E0,1.092727661E-2,2.470911713E0,2.667107852E0
3.110858042E0,-1.152902527E0,1.056802368E-1,2.665057983E0,2.905664572E0
3.120829042E0,-1.169068909E0,2.535726929E-1,2.783162384E0,3.029358691E0
3.130801042E0,-9.304650879E-1,4.950205994E-1,2.735860748E0,2.931850049E0
3.140772042E0,-6.780899048E-1,7.297325134E-1,2.844834137E0,3.014199185E0
3.150743042E0,-3.029699707E-1,9.157955933E-1,3.109034729E0,3.255237214E0
3.160714042E0,4.029620361E-1,1.263372803E0,3.250041504E0,3.510165098E0
3.170686042E0,1.169817352E0,1.431323547E0,3.498973846E0,3.957268972E0
3.180657042E0,1.063688049E0,1.318158875E0,3.394191742E0,3.793351113E0
3.190628042E0,3.977229309E-1,6.984475708E-1,3.334765320E0,3.430258340E0
3.200600042E0,1.124162292E-1,-5.972579956E-2,4.043092346E0,4.045095833E0
3.210571042E0,-1.667532349E-1,-7.128176880E-1,5.303321686E0,5.353609680E0
3.220542042E0,1.490899658E-1,-1.154848480E0,7.571704559E0,7.660718815E0
3.230513042E0,1.377285919E0,-1.487007751E0,1.177676010E1,1.194990322E1
3.240485042E0,3.313060455E0,-1.716031494E0,1.764231262E1,1.803253527E1
3.250456042E0,5.475314026E0,-1.856738892E0,2.240121643E1,2.313527697E1
3.260427042E0,6.960375824E0,-1.673370209E0,2.425915283E1,2.529334884E1
3.270398042E0,8.604856110E0,-9.202862549E-1,2.689517120E1,2.825315397E1
3.280370042E0,1.177720917E1,5.230123901E-1,3.248275177E1,3.455582961E1
3.290341042E0,1.528995438E1,2.527494049E0,3.849814270E1,4.150033641E1
3.300312042E0,1.647129776E1,3.757037201E0,4.208737885E1,4.535158692E1
3.310284042E0,1.520597900E1,2.910547485E0,4.109135010E1,4.391118465E1
3.320255042E0,1.274165359E1,9.804611206E-1,3.920422440E1,4.123447891E1
3.330226042E0,1.055440201E1,-2.514770508E-1,3.692057327E1,3.840035642E1
3.340197042E0,8.542435913E0,-8.454418945E-1,3.302567276E1,3.412305737E1
3.350169042E0,6.668183441E0,-1.101559296E0,2.814402420E1,2.894415660E1
3.360140042E0,5.251080322E0,-1.189127197E0,2.403955948E1,2.463510276E1
3.370111042E0,4.568948822E0,-1.504820709E0,2.167836960E1,2.220566340E1
3.380083042E0,4.950205994E0,-1.288819885E0,2.120355698E1,2.181184138E1
3.390054042E0,5.482648773E0,-6.920109558E-1,2.005798920E1,2.080531777E1
3.400025042E0,5.528303833E0,-3.999682617E-1,1.749022888E1,1.834748550E1
3.409996042E0,5.011578369E0,3.532653809E-2,1.458671677E1,1.542366596E1
3.419968042E0,4.256099396E0,6.448590088E-1,1.167886368E1,1.244693063E1
3.429939042E0,3.535797272E0,1.105451202E0,8.711883545E0,9.466826269E0
3.439910042E0,2.734214172E0,1.723066864E0,6.187982025E0,6.981117969E0
3.449881042E0,1.812131653E0,2.207459564E0,3.666774902E0,4.647788403E0
3.459853042E0,9.259744263E-1,2.163600769E0,1.370400238E0,2.723342384E0
3.469824042E0,2.409988403E-1,1.784289551E0,-6.198609924E-1,1.904205160E0
3.479795042E0,-3.477268982E-1,1.408421173E0,-2.130070496E0,2.577162104E0
3.489767042E0,-8.616082764E-1,1.019380188E0,-3.433559875E0,3.683861861E0
3.499738042E0,-9.300160217E-1,6.559359741E-1,-6.064638519E0,6.170496104E0
3.509709042E0,-7.629634094E-1,5.126838684E-1,-7.579338684E0,7.634876083E0
3.519680042E0,-9.187893677E-1,8.532257080E-1,-8.534053345E0,8.625672988E0
3.529652042E0,-1.021475830E0,1.156495056E0,-9.311536560E0,9.438517193E0
3.539623042E0,-5.364843750E-1,1.252744904E0,-9.707014160E0,9.802209403E0
3.549594042E0,-5.129832458E-1,1.187929688E0,-9.376202087E0,9.465067054E0
3.559566042E0,-9.792636108E-1,1.043629761E0,-7.676636353E0,7.808896592E0
3.569537042E0,-1.061293030E0,5.831872559E-1,-5.981261902E0,6.102617816E0
3.579508042E0,-1.123713226E0,-1.960922241E-2,-4.268074493E0,4.413567244E0
3.589479042E0,-1.131047974E0,-4.424798584E-1,-2.377356262E0,2.669621835E0
3.599451042E0,-1.104702759E0,-7.171586609E-1,-1.000369720E0,1.653911820E0
3.609422042E0,-8.997789001E-1,-8.761280823E-1,-5.658233643E-2,1.257141220E0
3.619393042E0,-6.450086975E-1,-8.388555908E-1,8.665480042E-1,1.367706242E0
3.629364042E0,-5.649252319E-1,-7.634124756E-1,1.474733276E0,1.754074503E0
3.639336042E0,-3.511697388E-1,-6.719526672E-1,1.657652893E0,1.822814770E0
3.649306958E0,-1.110690308E-1,-5.022056580E-1,1.939666443E0,2.006701961E0
3.659277958E0,2.409988403E-1,-2.974314880E-1,2.232457581E0,2.265041452E0
3.669249958E0,6.526428223E-1,-1.517843628E-1,2.746788025E0,2.827335424E0
3.679220958E0,8.325686646E-1,4.595443726E-2,3.723506927E0,3.815728794E0
3.689191958E0,7.378157043E-1,7.918533325E-2,4.717889099E0,4.775889434E0
3.699162958E0,4.352947998E-1,-3.888912964E-1,5.216202850E0,5.248760823E0
3.709134958E0,1.151106262E-1,-1.105600891E0,5.933211823E0,6.036439871E0
3.719105958E0,-1.046324158E-1,-1.581012268E0,7.130422211E0,7.304345873E0
3.729076958E0,-3.420387268E-1,-1.711091766E0,8.323740692E0,8.504674281E0
3.739048958E0,-5.239105225E-2,-2.004481659E0,9.558972015E0,9.767017842E0
3.749019958E0,1.329684906E0,-1.605411530E0,1.112306946E1,1.131671694E1
3.758990958E0,3.133883057E0,-1.854643250E-1,1.331780548E1,1.368281999E1
3.768961958E0,4.324956207E0,1.409918060E0,1.573976898E1,1.638393856E1
3.778933958E0,4.865033112E0,2.695295105E0,1.746044083E1,1.832485080E1
3.788904958E0,4.583019562E0,3.339705048E0,1.869567215E1,1.953678211E1
3.798875958E0,4.629423065E0,2.913391571E0,1.934666840E1,2.010504878E1
3.808846958E0,4.913532257E0,2.634371796E0,1.955338852E1,2.033267608E1
3.818818958E0,4.921316071E0,3.356919250E0,2.004227188E1,2.090887182E1
3.828789958E0,4.650529175E0,3.714974670E0,2.020992325E1,2.106820961E1
3.838760958E0,4.326902161E0,3.675756226E0,1.999242554E1,2.078293398E1
3.848732958E0,4.503235474E0,2.831511841E0,2.091540619E1,2.158126051E1
3.858703958E0,6.234086151E0,1.752705231E0,2.395019531E1,2.481023300E1
3.868674958E0,9.359137573E0,7.879614258E-1,2.782533691E1,2.936773253E1
3.878645958E0,1.218975128E1,-5.025050354E-1,3.274964676E1,3.494827479E1
3.888617958E0,1.269794449E1,-2.210902405E0,3.740137344E1,3.955993705E1
3.898588958E0,1.223810074E1,-3.785178680E0,3.914629486E1,4.118896805E1
3.908559958E0,1.211475723E1,-4.635859680E0,3.831192993E1,4.044826959E1
3.918530958E0,8.740623779E0,-3.843557281E0,3.332984024E1,3.467058821E1
3.928502958E0,5.012626190E0,-2.761756897E0,2.504397079E1,2.568957368E1
3.938473958E0,2.846031647E0,-1.625020752E0,1.780711990E1,1.810618977E1
3.948444958E0,1.155596924E0,-3.650907898E-1,1.162737076E1,1.169035698E1
3.958416958E0,7.005432129E-2,6.656657410E-1,6.899602203E0,6.931993151E0
3.968387958E0,-8.659492493E-1,1.266516266E0,3.571423187E0,3.887029089E0
3.978358958E0,-1.944606171E0,1.384770355E0,1.646575928E0,2.900050755E0
3.988329958E0,-3.144510956E0,6.795867920E-1,5.593867493E-1,3.265379135E0
3.998301958E0,-4.018393707E0,-3.034190369E-1,-2.692900085E-1,4.038820150E0
4.008272958E0,-4.467310181E0,-1.132694550E0,-1.282532959E0,4.783800579E0
4.018243958E0,-4.412673798E0,-1.387764130E0,-2.641556854E0,5.326856666E0
4.028215958E0,-3.918850708E0,-1.020128632E0,-4.177512817E0,5.818046634E0
4.038186958E0,-2.990930328E0,-3.879931641E-1,-5.591921539E0,6.353407702E0
4.048157958E0,-2.294279022E0,1.067280579E-1,-6.885980530E0,7.258914173E0
4.058128958E0,-1.855691071E0,8.566685486E-1,-8.492290192E0,8.734784660E0
4.068100958E0,-1.444496155E0,1.424737244E0,-9.088799744E0,9.312503752E0
4.078071958E0,-1.153201904E0,1.549128571E0,-8.280031586E0,8.502270110E0
4.088042958E0,-1.064735870E0,1.105301514E0,-6.569987640E0,6.746857899E0
4.098013958E0,-1.353485413E0,1.109193420E-1,-4.448150024E0,4.650834818E0
4.107985958E0,-1.645228729E0,-1.011746063E0,-2.768492889E0,3.375642242E0
4.117956958E0,-2.069296875E0,-1.615290985E0,-1.239123230E0,2.902857369E0
4.127927958E0,-2.341131592E0,-1.687590637E0,6.706054688E-2,2.886755342E0
4.137899958E0,-2.267933807E0,-1.529669037E0,7.209008789E-1,2.828976704E0
4.147870958E0,-1.442400513E0,-7.262896729E-1,1.001267853E0,1.900145584E0
4.157841958E0,-5.769003296E-1,1.200503540E-1,8.193960571E-1,1.009274976E0
4.167812958E0,-1.478924561E-1,6.765930176E-1,7.752378845E-1,1.039540316E0
4.177784958E0,4.887336731E-1,1.281634827E0,7.967930603E-1,1.586293672E0
4.187755958E0,5.451663208E-1,1.480571136E0,9.702822876E-1,1.852227018E0
4.197726958E0,2.288740540E-1,1.351240082E0,1.625769196E0,2.126348647E0
4.207697958E0,-2.552192688E-1,9.991722107E-1,2.990331573E0,3.163157426E0
4.217669958E0,-7.197033691E-1,2.951861572E-1,4.777914276E0,4.840823549E0
4.227640958E0,-8.638536072E-1,-4.528083801E-1,6.095474396E0,6.173012765E0
4.237611958E0,-7.583230591E-1,-8.482859802E-1,7.890840912E0,7.972453403E0
4.247583958E0,-2.920426941E-1,-8.241860962E-1,9.340127106E0,9.380967221E0
4.257554958E0,7.584727478E-1,-6.253994751E-1,1.028331573E1,1.033019786E1
4.267525958E0,2.405198364E0,-3.507206726E-1,1.217044144E1,1.241078680E1
4.277496958E0,4.360432434E0,2.646496582E-1,1.440484497E1,1.505267315E1
4.287468958E0,5.432353363E0,8.934919739E-1,1.720806564E1,1.806727191E1
4.297439958E0,5.826184387E0,8.839118958E-1,1.989901978E1,2.075323379E1
4.307410958E0,6.883435822E0,2.297721863E-1,2.199256622E1,2.304576866E1
4.317381958E0,9.393565979E0,1.053808594E0,2.366952896E1,2.548717708E1
4.327353958E0,1.322589661E1,2.959495697E0,2.827335526E1,3.135387653E1
4.337324958E0,1.694416443E1,4.894671478E0,3.493016235E1,3.913027931E1
4.347295958E0,2.085538101E1,5.291795654E0,4.111530029E1,4.640493440E1
4.357267958E0,2.266601578E1,2.958896942E0,4.482563461E1,5.031740117E1
4.367238958E0,1.976894028E1,3.143463135E-1,4.295228027E1,4.728433349E1
4.377209958E0,1.573542801E1,-1.184486847E0,3.737188477E1,4.056679029E1
4.387180958E0,1.351105362E1,-1.256487122E0,3.123704224E1,3.405701304E1
4.397152958E0,1.114237930E1,-5.075944519E-1,2.456212280E1,2.697606616E1
4.407123958E0,9.251960449E0,-2.808160400E-1,1.868234985E1,2.084964810E1
4.417094958E0,7.887697449E0,-9.912387085E-1,1.537288193E1,1.730675660E1
4.427066958E0,6.090384979E0,-2.677631836E0,1.576476700E1,1.711111861E1
4.437037958E0,4.041595459E0,-4.540208588E0,1.787477921E1,1.888003494E1
4.447008958E0,1.980681152E0,-5.391638031E0,1.854478592E1,1.941396259E1
4.456979958E0,6.857240295E-1,-4.576732635E0,1.762105682E1,1.821862626E1
4.466951958E0,-1.047821045E-2,-3.191962280E0,1.537901917E1,1.570678081E1
4.476922958E0,-3.926335144E-1,-2.023641815E0,1.140208923E1,1.158692911E1
4.486893958E0,-4.836442566E-1,-6.489006042E-1,7.070846100E0,7.117011194E0
4.496864958E0,-1.347946930E0,-1.646575928E-2,2.287243652E0,2.654941727E0
4.506836958E0,-2.182910614E0,1.002914429E-1,-1.933529205E0,2.917823214E0
4.516807958E0,-2.589764557E0,6.658154297E-1,-5.476960602E0,6.094857511E0
4.526778958E0,-2.851420441E0,9.234297180E-1,-7.636669464E0,8.203782145E0
4.536750958E0,-2.911295929E0,5.245092773E-1,-8.680748291E0,9.170940239E0
4.546721958E0,-2.807112579E0,-4.340972900E-2,-8.118517456E0,8.590232309E0
4.556692958E0,-2.593955841E0,-4.409829712E-1,-6.424789581E0,6.942693573E0
4.566663958E0,-2.287393341E0,-4.812492371E-1,-4.461771698E0,5.036980823E0
4.576635958E0,-1.919308777E0,-5.321434021E-1,-3.213367767E0,3.780562814E0
4.586606958E0,-1.631756744E0,-6.477030945E-1,-2.801873474E0,3.306454950E0
4.596577958E0,-1.678010559E0,-8.325686646E-1,-2.790497131E0,3.360917175E0
4.606548958E0,-1.767225037E0,-1.012943573E0,-2.998265076E0,3.624738953E0
4.616520958E0,-2.023641815E0,-1.130149841E0,-2.969375153E0,3.766902395E0
4.626491958E0,-2.231858826E0,-1.185085602E0,-3.076402588E0,3.981190096E0
4.636462958E0,-2.162852325E0,-1.081051941E0,-3.130140839E0,3.955298364E0
4.646433208E0,-2.087109833E0,-9.434880066E-1,-2.518662415E0,3.404387967E0
4.656405208E0,-2.152523804E0,-1.040336609E0,-1.515598297E0,2.830670801E0
4.666376208E0,-1.991458740E0,-1.192719727E0,-4.308041382E-1,2.360949060E0
4.676347208E0,-1.688189392E0,-1.259031830E0,7.420069885E-1,2.232872353E0
4.686319208E0,-1.411714325E0,-1.285077667E0,1.979783020E0,2.750255034E0
4.696290208E0,-1.133742371E0,-1.106199646E0,3.053051147E0,3.439501523E0
4.706261208E0,-1.045725403E0,-8.827143860E-1,3.290756836E0,3.563959436E0
4.716232208E0,-8.039781189E-1,-7.158114624E-1,2.952610016E0,3.142717418E0
4.726204208E0,-4.819976807E-1,-2.883004761E-1,2.308798828E0,2.376129407E0
4.736175208E0,-9.220825195E-2,4.746629333E-1,1.676064606E0,1.744419624E0
4.746146208E0,4.891827393E-1,1.141077118E0,1.581611023E0,2.010684005E0
4.756117208E0,9.551637268E-1,1.445693665E0,2.156266022E0,2.766197945E0
4.766089208E0,1.185085602E0,1.385668488E0,3.181334381E0,3.666796079E0
4.776060208E0,1.399739227E0,1.093625793E0,4.336631927E0,4.686327321E0
4.786031208E0,1.226998444E0,6.406677246E-1,5.603896637E0,5.772316505E0
4.796002208E0,1.002764740E0,1.347198486E-3,7.580685883E0,7.646720695E0
4.805974208E0,1.888173523E0,-5.417234802E-1,1.087713089E1,1.105308283E1
4.815945208E0,3.658392334E0,1.796264648E-2,1.557166855E1,1.599565624E1
4.825916208E0,4.885540466E0,8.952882385E-1,2.015798126E1,2.076088281E1
4.835888208E0,4.387526093E0,8.364605713E-1,2.212818420E1,2.257446761E1
4.845859208E0,1.794917450E0,1.503323822E0,2.003823029E1,2.017454793E1
4.855830208E0,-3.173400879E-1,3.712879028E0,1.661544800E1,1.702819097E1
4.865801208E0,1.871408386E0,5.606591034E0,1.676363983E1,1.777514143E1
4.875773208E0,7.252568207E0,6.593638458E0,2.175441147E1,2.386064190E1
4.885744208E0,1.328083237E1,6.735543365E0,3.106265488E1,3.444759180E1
4.895715208E0,1.885778503E1,5.804629211E0,3.973801437E1,4.436687461E1
4.905687208E0,2.197999237E1,4.706063690E0,4.237987061E1,4.797208076E1
4.915658208E0,2.322315720E1,2.167342987E0,3.875575699E1,4.523296481E1
4.925629208E0,1.997685791E1,9.891430664E-1,3.316009323E1,3.872525067E1
4.935600208E0,1.651545593E1,1.422042847E-1,2.804103836E1,3.254351455E1
4.945572208E0,1.381192795E1,-1.135838013E0,2.271601181E1,2.660971015E1
4.955543208E0,1.036175262E1,-1.941313019E0,1.766177216E1,2.056873378E1
4.965514208E0,8.029602356E0,-2.239642639E0,1.354907455E1,1.590810908E1
4.975485208E0,6.800208893E0,-2.206262054E0,1.122860001E1,1.331134446E1
4.985457208E0,6.158343658E0,-1.709894257E0,1.094284424E1,1.267259938E1
4.995428208E0,5.539680176E0,-1.273701324E0,1.302935532E1,1.421529006E1
5.005399208E0,4.160897369E0,-1.975442047E0,1.446232544E1,1.517808602E1
5.015370208E0,2.772983551E0,-3.069367218E0,1.409903091E1,1.469330207E1
5.025342208E0,1.447190552E0,-2.655178528E0,1.200997513E1,1.238482281E1
5.035313208E0,5.138813782E-1,-1.370849304E0,8.334069214E0,8.461679003E0
5.045284208E0,-3.135978699E-1,-8.035290527E-1,4.339775391E0,4.424664168E0
5.055256208E0,-9.346563721E-1,-6.072871399E-1,1.167572021E-2,1.114682254E0
5.065227208E0,-1.217867432E0,2.436932373E-1,-3.863615570E0,4.058338668E0
5.075198208E0,-1.315913544E0,1.253643036E0,-6.518494720E0,6.767128101E0
5.085169208E0,-1.426234131E0,1.723515930E0,-7.850574646E0,8.163098262E0
5.095141208E0,-1.561702423E0,1.402882690E0,-7.459288330E0,7.749062956E0
5.105112208E0,-1.992506561E0,4.833448792E-1,-6.066434784E0,6.403540869E0
5.115083208E0,-2.506687317E0,-7.705975342E-1,-4.191284180E0,4.944104058E0
5.125054208E0,-2.742297363E0,-1.793869629E0,-2.490520935E0,4.115927308E0
5.135026208E0,-3.206332397E0,-2.318079529E0,-9.821076965E-1,4.076591183E0
5.144997208E0,-3.508404236E0,-2.220482483E0,2.523751831E-1,4.159703832E0
5.154968208E0,-3.044668579E0,-1.725461884E0,4.231700134E-1,3.525095506E0
5.164939208E0,-2.523302765E0,-1.225351868E0,3.787124634E-2,2.805348156E0
5.174911208E0,-2.187850342E0,-8.086184692E-1,-9.370513916E-2,2.334380774E0
5.184882208E0,-1.814676361E0,-3.941304016E-1,1.805245972E-1,1.865737977E0
5.194853208E0,-1.361418915E0,9.265731812E-2,5.474116516E-1,1.470274245E0
5.204825208E0,-1.174008636E0,2.582130432E-1,9.915380859E-1,1.558241968E0
5.214796208E0,-8.747808838E-1,3.625460815E-1,1.406624908E0,1.695663554E0
5.224767208E0,-6.237528992E-1,4.336482239E-1,1.919458466E0,2.064325377E0
5.234738208E0,-3.363505554E-1,4.429289246E-1,2.488574982E0,2.549965327E0
5.244710208E0,2.306703186E-1,5.764512634E-1,3.030597839E0,3.093546204E0
5.254681208E0,6.704557800E-1,7.795788574E-1,3.526067505E0,3.672928831E0
5.264652208E0,8.475375366E-1,8.842112732E-1,3.611988831E0,3.814002198E0
5.274623208E0,9.991722107E-1,1.031355286E0,3.132386169E0,3.445849960E0
5.284595208E0,1.399888916E0,1.331481171E0,2.663411407E0,3.290333024E0
5.294566208E0,1.880090332E0,1.532363434E0,2.907404022E0,3.786274620E0
5.304537208E0,2.222278748E0,1.195863190E0,3.895648956E0,4.641626050E0
5.314508208E0,2.575693817E0,3.935316467E-1,6.515051880E0,7.016763270E0
5.324480208E0,2.858455811E0,-6.933581543E-1,1.032058823E1,1.073154493E1
5.334451208E0,3.351829834E0,-1.212628326E0,1.449166443E1,1.492359101E1
5.344422208E0,4.544100494E0,-1.424587555E0,1.856993362E1,1.917083028E1
5.354393208E0,6.354884949E0,-1.074315948E0,2.091944778E1,2.188976960E1
5.364365208E0,8.246052246E0,6.520440674E-1,2.089310257E1,2.247096513E1
5.374336208E0,8.100854187E0,2.833158417E0,1.929337921E1,2.111599173E1
5.384307208E0,7.073091431E0,3.634591827E0,1.719294708E1,1.894297520E1
5.394279208E0,7.705975342E0,4.399950256E0,1.696931213E1,1.914939092E1
5.404250208E0,1.235979767E1,7.209607544E0,1.995305740E1,2.455336105E1
5.414221208E0,1.875494888E1,1.126317810E1,2.742970963E1,3.508555627E1
5.424192208E0,2.527089890E1,1.345716568E1,3.706128067E1,4.683217018E1
5.434164208E0,2.806468918E1,1.184621567E1,4.360312683E1,5.319015204E1
5.444135208E0,2.455598557E1,8.582851868E0,4.211207748E1,4.949837213E1
5.454106208E0,1.863849106E1,6.222560120E0,3.525334030E1,4.035977708E1
5.464077208E0,1.322290283E1,4.988526306E0,2.804328369E1,3.140312587E1
5.474049208E0,9.206754456E0,3.650458832E0,2.286270676E1,2.491572872E1
5.484020208E0,5.732628937E0,1.976190491E0,1.957958405E1,2.049703576E1
5.493991208E0,2.756068726E0,7.354206848E-1,1.652309006E1,1.676750618E1
5.503962208E0,8.896000671E-1,-5.568420410E-2,1.323996735E1,1.326993686E1
5.513934208E0,6.691085815E-2,-2.954855347E-1,1.005623795E1,1.006080068E1
5.523905208E0,8.547225952E-2,-4.056564331E-2,7.561376038E0,7.561967909E0
5.533876208E0,5.770500183E-1,2.254312134E-1,5.638175354E0,5.672109597E0
5.543847208E0,8.201445007E-1,6.466552734E-1,3.778742065E0,3.920419830E0
5.553819208E0,7.098239136E-1,1.221909027E0,1.776954803E0,2.270347998E0
5.563790208E0,4.971162415E-1,1.479523315E0,-2.083666992E-1,1.574652495E0
5.573761208E0,-3.070115662E-1,1.425934753E0,-2.684517517E0,3.055189081E0
5.583733208E0,-1.841470642E0,1.006806335E0,-5.453758850E0,5.843642590E0
5.593704208E0,-3.604055328E0,1.508862305E-1,-7.267836456E0,8.113780144E0
5.603675208E0,-5.139711914E0,-9.460327148E-1,-8.171956329E0,9.700128180E0
5.613646208E0,-6.077062683E0,-1.733694763E0,-7.366481323E0,9.705742397E0
5.623618208E0,-6.261628876E0,-2.582729187E0,-5.644312592E0,8.816844723E0
5.633589208E0,-5.873785400E0,-3.075654144E0,-3.284020844E0,7.399040225E0
5.643560208E0,-5.173092499E0,-2.953957214E0,-1.606309662E0,6.169844403E0
5.653531583E0,-4.421056366E0,-2.389331360E0,-1.000968475E0,5.124117644E0
5.663503583E0,-3.205134888E0,-1.639690247E0,-7.607180786E-1,3.679696421E0
5.673474583E0,-1.952240295E0,-7.123686218E-1,-1.026265869E0,2.317743053E0
5.683445583E0,-1.103056183E0,2.342628479E-1,-1.699865112E0,2.039890542E0
5.693416583E0,-3.929328918E-1,9.845027161E-1,-2.302511902E0,2.534798397E0
5.703388583E0,8.247848511E-2,1.381177826E0,-2.413131866E0,2.781665022E0
5.713359583E0,3.954776001E-1,1.466500397E0,-2.242486725E0,2.708463154E0
5.723330583E0,5.281018066E-1,1.227447510E0,-1.695973206E0,2.159130385E0
5.733301583E0,3.567082214E-1,5.150788879E-1,-5.822891235E-1,8.553406569E-1
5.743273583E0,-2.912942505E-1,-1.206491089E-1,8.638536072E-1,9.195931723E-1
5.753244583E0,-8.369096375E-1,-4.143383789E-1,1.667682037E0,1.911349631E0
5.763215583E0,-1.143172760E0,-5.751040649E-1,2.154469757E0,2.505858851E0
5.773187583E0,-1.171014862E0,-6.830296326E-1,2.367177429E0,2.727880912E0
5.783158583E0,-9.117539978E-1,-1.501377869E-1,2.145787811E0,2.336288090E0
5.793129583E0,-3.267704773E-1,5.858816528E-1,1.932481384E0,2.045610070E0
5.803100583E0,4.314028931E-1,1.204694824E0,2.255809021E0,2.593467257E0
5.813072583E0,1.376387787E0,1.467548218E0,3.300785980E0,3.865660254E0
5.823043583E0,1.868414612E0,1.368304596E0,4.756957855E0,5.290735172E0
5.833014583E0,2.204765167E0,1.077459412E0,6.682703247E0,7.119018957E0
5.842985583E0,2.871478729E0,4.517605591E-1,9.142687683E0,9.593654974E0
5.852957583E0,3.638184357E0,-5.252577209E-1,1.103460342E1,1.163076755E1
5.862928583E0,4.483626251E0,-1.005758514E0,1.249137405E1,1.330972878E1
5.872899583E0,5.200934601E0,-9.930349731E-1,1.528261963E1,1.617387715E1
5.882870583E0,6.433172150E0,-2.606080627E-1,1.948752548E1,2.052357839E1
5.892842583E0,8.818162537E0,1.857786713E0,2.287797501E1,2.458888168E1
5.902813583E0,1.145043869E1,4.991520081E0,2.476031067E1,2.773266672E1
5.912784583E0,1.314386719E1,7.595804443E0,2.565934113E1,2.981374309E1
5.922755583E0,1.363843872E1,9.010213165E0,2.572969482E1,3.048291567E1
5.932727583E0,1.287457718E1,9.863438873E0,2.579480942E1,3.046989263E1
5.942698583E0,1.028376480E1,1.058883041E1,2.513932251E1,2.915243874E1
5.952669583E0,8.063282318E0,1.055410263E1,2.426798447E1,2.766479124E1
5.962640583E0,5.754333801E0,9.102571106E0,2.367491776E1,2.600905398E1
5.972612583E0,3.529510345E0,7.012018433E0,2.343631393E1,2.471612139E1
5.982583583E0,3.412902832E0,4.621489563E0,2.920890976E1,2.976854852E1
5.992554583E0,5.167853394E0,2.344275055E0,3.541724945E1,3.586898232E1
6.002526583E0,6.637946320E0,1.464853821E0,3.488016632E1,3.553637757E1
6.012497583E0,6.951693878E0,2.441423035E0,2.845567612E1,2.939408270E1
6.022468583E0,6.768774261E0,4.389472046E0,2.114547775E1,2.263216736E1
6.032439583E0,6.039640503E0,5.801934814E0,1.544548096E1,1.756993418E1
6.042411583E0,4.615651703E0,5.795797577E0,1.148935776E1,1.367116864E1
6.052382583E0,2.974314880E0,5.143304443E0,8.819509735E0,1.063409054E1
6.062353583E0,1.217418365E0,4.176015930E0,6.300098877E0,7.655877637E0
6.072324583E0,-8.026309204E-1,3.016676788E0,3.123404846E0,4.415904559E0
6.082296583E0,-2.213297424E0,2.080972595E0,1.528321838E-1,3.041790609E0
6.092267583E0,-2.832409973E0,1.498234406E0,-1.706451416E0,3.630320788E0
6.102238583E0,-3.127296753E0,8.247848511E-1,-2.526595917E0,4.104137176E0
6.112209583E0,-3.277733917E0,-6.631210327E-2,-2.929707642E0,4.396717388E0
6.122181583E0,-3.656296692E0,-4.340972900E-1,-3.145558777E0,4.842673433E0
6.132152583E0,-3.757486267E0,-3.697311401E-1,-4.129911804E0,5.595674729E0
6.142123583E0,-3.493435364E0,-1.796264648E-1,-4.771477661E0,5.916363358E0
6.152094583E0,-2.823728027E0,1.004411316E-1,-4.605921936E0,5.403521562E0
6.162066583E0,-2.294129333E0,2.332150269E-1,-3.557202759E0,4.239234614E0
6.172037583E0,-1.727258148E0,3.112028503E-1,-1.848805389E0,2.549186006E0
6.182008583E0,-9.370513916E-1,3.257226562E-1,-1.673519897E-1,1.006065230E0
6.191979583E0,-4.649331665E-1,2.368075562E-1,1.214424591E0,1.321766907E0
6.201951583E0,-4.860392761E-1,1.276844788E-1,1.845212860E0,1.912419411E0
6.211922583E0,-4.201762390E-1,2.941383362E-1,2.100581818E0,2.162292627E0
6.221893583E0,-4.020639038E-1,7.952961731E-1,2.110161896E0,2.290618827E0
6.231864583E0,-1.775308228E-1,1.427431641E0,2.207010498E0,2.634382968E0
6.241836583E0,-8.158035278E-2,2.120640106E0,2.412084045E0,3.212774386E0
6.251807583E0,-3.185375977E-1,2.390379181E0,2.290985870E0,3.326258422E0
6.261778583E0,-8.039781189E-1,2.062860260E0,2.257904663E0,3.162262914E0
6.271749583E0,-1.422940979E0,1.306183777E0,2.990481262E0,3.560035852E0
6.281721583E0,-1.911075897E0,6.224057007E-1,4.869074707E0,5.267588485E0
6.291692583E0,-1.940863953E0,1.709445190E-1,7.004983063E0,7.270898337E0
6.301663583E0,-9.918374634E-1,2.360591125E-1,9.525142365E0,9.579551269E0
6.311634583E0,-5.987548828E-3,1.972897339E-1,1.133517838E1,1.133689675E1
6.321606583E0,1.051712952E0,2.005828857E-2,1.168215683E1,1.172941988E1
6.331577583E0,2.022593994E0,6.810836792E-2,1.015847534E1,1.035809570E1
6.341548583E0,2.997965698E0,1.857637024E-1,7.643405457E0,8.212426770E0
6.351520583E0,4.123325500E0,7.996371460E-1,5.586981812E0,6.989677998E0
6.361491583E0,4.857548676E0,1.952839050E0,4.947661285E0,7.203381962E0
6.371462583E0,5.490432587E0,2.531984711E0,6.246210938E0,8.693155218E0
6.381433583E0,5.851332092E0,1.846110992E0,8.888366547E0,1.080042929E1
6.391405583E0,6.254144440E0,1.031205597E0,1.180879349E1,1.340243677E1
6.401376583E0,6.694828033E0,7.800279236E-1,1.501288055E1,1.645648044E1
6.411347583E0,7.296427002E0,1.165476379E0,1.756297760E1,1.905398552E1
6.421318583E0,8.346343689E0,3.150797882E0,1.748124756E1,1.962607950E1
6.431290583E0,9.340276794E0,6.939868469E0,1.501093460E1,1.899291190E1
6.441261583E0,9.596843262E0,1.035007690E1,1.123952728E1,1.804301710E1
6.451232583E0,9.131011963E0,1.258358231E1,8.580307159E0,1.775791638E1
6.461203583E0,9.126820679E0,1.345701599E1,9.813143463E0,1.899178559E1
6.471175583E0,9.705517273E0,1.164039368E1,1.629750916E1,2.225544057E1
6.481146583E0,1.092368408E1,8.292755127E0,2.382999527E1,2.749482381E1
6.491117583E0,1.353739883E1,6.768624573E0,3.111983597E1,3.460519667E1
6.501088583E0,1.619033203E1,7.036866760E0,3.749672516E1,4.144452609E1
6.511060583E0,1.757420425E1,7.936495972E0,4.083119110E1,4.515558426E1
6.521031583E0,1.685015991E1,8.007149048E0,3.825684448E1,4.256322914E1
6.531002583E0,1.465332825E1,7.507488098E0,3.039683945E1,3.456949891E1
6.540973583E0,1.169068909E1,7.319179688E0,2.135893387E1,2.542531531E1
6.550945583E0,8.618627472E0,6.972051544E0,1.360490845E1,1.754946655E1
6.560916583E0,5.687273254E0,5.946534119E0,7.386988678E0,1.105775505E1
6.570887583E0,2.762355652E0,4.521796875E0,3.431314545E0,6.312778725E0
6.580858583E0,-4.326004028E-2,3.103496246E0,1.562151489E0,3.474748575E0
6.590830583E0,-2.270029449E0,1.486259308E0,1.296753387E0,3.007252863E0
6.600801583E0,-3.625311127E0,1.315763855E-1,1.420995026E0,3.896077511E0
6.610772583E0,-4.323758698E0,-5.583389282E-1,6.715036011E-1,4.411071153E0
6.620743583E0,-4.792583771E0,-9.307644653E-1,-1.181193695E0,5.022987182E0
6.630715583E0,-4.844825134E0,-6.441105652E-1,-3.066074066E0,5.769577037E0
6.640686583E0,-4.699327698E0,-2.598596191E-1,-5.045258331E0,6.899698505E0
6.650657417E0,-4.500990143E0,-1.422042847E-1,-7.190746765E0,8.484454807E0
6.660628417E0,-4.281845856E0,-7.768844604E-2,-8.738079071E0,9.731097845E0
6.670600417E0,-3.824995880E0,2.619552612E-2,-8.936416626E0,9.720638961E0
6.680571417E0,-3.379671936E0,-1.022373962E-1,-7.901019745E0,8.594111233E0
6.690542417E0,-3.125949554E0,-5.748046875E-1,-6.276747437E0,7.035589487E0
6.700513417E0,-2.849923553E0,-1.279838562E0,-4.165238342E0,5.206655496E0
6.710485417E0,-2.491868134E0,-2.016756134E0,-1.860481110E0,3.706494578E0
6.720456417E0,-1.676663361E0,-2.364932098E0,8.851094055E-1,3.031092627E0
6.730427417E0,-9.461824036E-1,-2.360591125E0,4.017046509E0,4.754399463E0
6.740398417E0,-3.802093506E-1,-2.229912872E0,6.116879883E0,6.521755137E0
6.750370417E0,3.094065857E-1,-1.949246521E0,7.169490967E0,7.436188214E0
6.760341417E0,9.629475403E-1,-1.231938171E0,7.237000580E0,7.403993316E0
6.770312417E0,1.296004944E0,-4.583468628E-1,6.392456818E0,6.538594255E0
6.780283417E0,1.250200195E0,6.481521606E-2,5.208119659E0,5.356464499E0
6.790255417E0,8.442443848E-1,4.920268250E-1,4.143383789E0,4.257049236E0
6.800226417E0,5.188211060E-1,9.186396790E-1,3.030597839E0,3.208986984E0
6.810197417E0,8.532257080E-2,1.200653229E0,2.261497192E0,2.561877762E0
6.820168417E0,-1.227447510E-1,1.146914978E0,2.011666718E0,2.318896984E0
6.830140417E0,-3.031196594E-1,9.583071899E-1,2.445614319E0,2.644099770E0
6.840111417E0,-7.390132141E-1,6.574328613E-1,3.555107117E0,3.690141611E0
6.850082417E0,-7.354206848E-1,4.704716492E-1,4.966372375E0,5.042523349E0
6.860053417E0,-1.320254517E-1,5.117857361E-1,6.990912323E0,7.010863746E0
6.870025417E0,8.491841125E-1,1.244062958E0,1.015623001E1,1.026731778E1
6.879996417E0,2.808310089E0,2.403252411E0,1.358365265E1,1.407756538E1
6.889967417E0,5.301525421E0,4.140839081E0,1.651051620E1,1.782834444E1
6.899938417E0,6.947801971E0,6.070177002E0,1.841276047E1,2.059487191E1
6.909910417E0,7.198979645E0,7.247927856E0,1.828806976E1,2.094782236E1
6.919881417E0,5.916596375E0,6.954238586E0,1.669613022E1,1.902966924E1
6.929852417E0,3.611539764E0,4.737049255E0,1.650767212E1,1.754953258E1
6.939823417E0,2.363584900E0,3.370391235E0,1.715238144E1,1.763945180E1
6.949795417E0,2.867886200E0,4.486320648E0,1.845302673E1,1.920588555E1
6.959766417E0,5.245392151E0,6.262676697E0,2.084370529E1,2.238739173E1
6.969737417E0,9.097631378E0,8.269253998E0,2.279175430E1,2.589616811E1
6.979708417E0,1.143936172E1,1.027927414E1,2.291839096E1,2.760027387E1
6.989680417E0,1.272189468E1,1.089524323E1,2.173914322E1,2.744345600E1
6.999651417E0,1.367017273E1,1.084644470E1,2.326566879E1,2.908281846E1
7.009622417E0,1.342707825E1,1.005249573E1,2.687451416E1,3.167930889E1
7.019593417E0,1.159758270E1,7.857310638E0,2.879756516E1,3.202406929E1
7.029565417E0,8.554411011E0,5.100493469E0,2.770483749E1,2.944063522E1
7.039536417E0,5.660478973E0,3.182232513E0,2.364033966E1,2.451598020E1
7.049507417E0,3.913910980E0,2.467319183E0,1.867890701E1,1.924338666E1
7.059478417E0,3.117267609E0,2.717748413E0,1.444151871E1,1.502201639E1
7.069450417E0,2.325114899E0,3.365451508E0,1.167467239E1,1.237054561E1
7.079421417E0,2.019600220E0,3.590733032E0,1.102023331E1,1.176510480E1
7.089392417E0,1.666185150E0,3.300336914E0,1.104208786E1,1.164457389E1
7.099363417E0,8.864566040E-1,2.844834137E0,1.026220963E1,1.068605788E1
7.109335417E0,-2.303709412E-1,2.442021790E0,8.857979736E0,9.191319067E0
7.119306417E0,-1.232686615E0,1.955533447E0,7.026089172E0,7.396590864E0
7.129277417E0,-2.177821198E0,1.361269226E0,4.813989258E0,5.456230535E0
7.139248417E0,-3.250939636E0,7.482939148E-1,2.271077271E0,4.035634308E0
7.149220417E0,-4.107159119E0,1.615141296E-1,-1.698966980E-1,4.113843425E0
7.159191417E0,-4.746629333E0,-3.146456909E-1,-2.209854584E0,5.245278755E0
7.169162417E0,-5.137017517E0,-5.388793945E-1,-3.545527039E0,6.264990180E0
7.179133417E0,-5.208718414E0,-6.830296326E-1,-4.154460754E0,6.697523509E0
7.189105417E0,-4.982538757E0,-9.854008484E-1,-4.276906128E0,6.639927208E0
7.199076417E0,-4.388573914E0,-1.292262726E0,-3.525468750E0,5.775677783E0
7.209047417E0,-3.554208984E0,-1.316811676E0,-2.304158478E0,4.435711982E0
7.219018417E0,-2.709515533E0,-1.239422607E0,-1.255139923E0,3.233112904E0
7.228990417E0,-1.791025543E0,-9.150471497E-1,-4.502636719E-1,2.061024298E0
7.238961417E0,-1.037642212E0,-5.730084229E-1,3.842509460E-1,1.246069341E0
7.248932417E0,-4.667294312E-1,-3.797602844E-1,1.023421783E0,1.187201071E0
7.258903417E0,2.495310974E-1,1.466949463E-1,1.601669312E0,1.627614745E0
7.268875417E0,9.357041931E-1,8.617579651E-1,2.477048950E0,2.784589849E0
7.278846417E0,1.130898285E0,1.311123505E0,3.297043762E0,3.724039923E0
7.288817417E0,9.782157898E-1,1.309027863E0,3.656895447E0,4.005414384E0
7.298788417E0,7.949967957E-1,1.076112213E0,3.901935883E0,4.124941337E0
7.308760417E0,5.128335571E-1,7.122189331E-1,4.307891693E0,4.396383162E0
7.318731417E0,4.867877197E-1,4.462220764E-1,4.886438599E0,4.930857796E0
7.328702417E0,5.938151550E-1,5.174739075E-1,5.552553406E0,5.608140958E0
7.338673417E0,3.643423462E-1,5.152285767E-1,6.272556152E0,6.304218153E0
7.348645417E0,3.477268982E-1,7.289840698E-2,7.146887970E0,7.155713509E0
7.358616417E0,5.412744141E-1,-5.013075256E-1,8.091872864E0,8.125434983E0
7.368587417E0,1.247655487E0,-9.601034546E-1,9.088500366E0,9.223843113E0
7.378558417E0,2.220632172E0,-1.043480072E0,9.829908600E0,1.013149352E1
7.388530417E0,4.032165070E0,-4.674778748E-1,9.859996033E0,1.066285199E1
7.398501417E0,5.958958282E0,1.048419800E0,1.022448807E1,1.188059444E1
7.408472417E0,8.382718048E0,3.126847687E0,1.160925842E1,1.465680796E1
7.418443417E0,1.055125854E1,4.782704315E0,1.279224838E1,1.725818461E1
7.428415417E0,1.192899353E1,6.004763031E0,1.334579727E1,1.888036998E1
7.438386417E0,1.271830215E1,6.098019104E0,1.343710739E1,1.948068022E1
7.448357417E0,1.251188141E1,5.277425537E0,1.300375854E1,1.880149284E1
7.458328417E0,1.103969284E1,4.566553802E0,1.311033691E1,1.773722542E1
7.468300417E0,9.464668121E0,4.435725861E0,1.366059265E1,1.720079644E1
7.478271417E0,8.568481750E0,4.547992401E0,1.599603607E1,1.870765310E1
7.488242417E0,8.847052460E0,4.417613525E0,2.050825287E1,2.276782998E1
7.498213417E0,1.012359787E1,4.432432709E0,2.595841919E1,2.821299737E1
7.508185417E0,1.028256729E1,4.725074158E0,3.062616257E1,3.264995175E1
7.518156417E0,9.807604980E0,4.613106995E0,3.396946014E1,3.565661361E1
7.528127417E0,8.443641357E0,3.820954285E0,3.571827347E1,3.690108170E1
7.538098417E0,6.688391418E0,3.416944427E0,3.470308456E1,3.550653697E1
7.548069417E0,5.464237061E0,4.248764648E0,3.096760254E1,3.173172379E1
7.558041417E0,4.835993500E0,5.232668610E0,2.578433121E1,2.675068952E1
7.568012417E0,4.462969208E0,5.269641724E0,2.037083862E1,2.150949289E1
7.577983417E0,3.887715454E0,4.860542450E0,1.559576843E1,1.679187891E1
7.587954417E0,3.165018311E0,4.363575897E0,1.166060165E1,1.284631334E1
7.597926417E0,2.638862457E0,3.969595184E0,9.032067719E0,1.021271405E1
7.607897417E0,1.755399628E0,2.936892700E0,7.722291412E0,8.446333598E0
7.617868417E0,8.397537231E-2,1.348395996E0,7.022047577E0,7.150830427E0
7.627839417E0,-1.963317261E0,-5.378315735E-1,7.479645996E0,7.751708308E0
7.637811417E0,-3.607498169E0,-2.143093414E0,7.051536255E0,8.205550315E0
7.647782417E0,-4.819378052E0,-2.811303864E0,4.838388519E0,7.385109186E0
7.657753667E0,-5.491031342E0,-2.518512726E0,1.708397369E0,6.277973647E0
7.667724667E0,-5.203628998E0,-1.844763794E0,-1.775158539E0,5.799318584E0
7.677696667E0,-4.123026123E0,-8.936416626E-1,-4.406985626E0,6.100775536E0
7.687667667E0,-2.662064209E0,1.594184875E-1,-5.525310059E0,6.135230342E0
7.697638667E0,-1.312620392E0,8.238867188E-1,-5.050647125E0,5.283067102E0
7.707609667E0,-2.957849121E-1,1.049317932E0,-4.329746246E0,4.464891868E0
7.717581667E0,4.230203247E-1,1.005309448E0,-3.189267883E0,3.370611653E0
7.727552667E0,6.107299805E-1,8.852590942E-1,-1.929038544E0,2.208588797E0
7.737523667E0,4.099974060E-1,4.011657715E-1,-1.056802368E0,1.202440474E0
7.747494667E0,5.598358154E-2,-3.752696228E-1,-3.321592712E-1,5.042729744E-1
7.757466667E0,-3.132984924E-1,-1.007405090E0,1.463955688E-1,1.065106860E0
7.767437667E0,-6.162684631E-1,-1.446591797E0,1.689985657E-1,1.581447173E0
7.777408667E0,-7.917036438E-1,-1.589095459E0,1.393601990E-1,1.780853813E0
7.787379667E0,-9.024732971E-1,-1.500928802E0,1.615141296E-1,1.758787121E0
7.797351667E0,-8.316705322E-1,-1.320104828E0,4.249662781E-1,1.617080384E0
7.807322667E0,-6.029461670E-1,-1.095422058E0,1.032403107E0,1.621526978E0
7.817293667E0,-5.448669434E-2,-6.548881531E-1,1.822160797E0,1.937038271E0
7.827264667E0,5.525010681E-1,-2.088157654E-1,2.390977936E0,2.462851385E0
7.837235667E0,7.994874573E-1,4.011657715E-2,2.938239899E0,3.045331384E0
7.847207667E0,7.523355103E-1,-1.272354126E-1,3.616629181E0,3.696241903E0
7.857178667E0,3.296145630E-1,-4.583468628E-1,4.537514191E0,4.572500698E0
7.867149667E0,-1.025367737E-1,-6.460565186E-1,5.260211334E0,5.300728827E0
7.877120667E0,-3.035687256E-1,-3.418890381E-1,5.141807556E0,5.162095217E0
7.887092667E0,-1.981878662E-1,1.898052979E-1,4.687651978E0,4.695677325E0
7.897063667E0,-1.929487610E-1,6.409671021E-1,4.401896210E0,4.452500229E0
7.907034667E0,-4.176315308E-2,8.544232178E-1,4.503235474E0,4.583766238E0
7.917005667E0,1.609153748E-1,8.809181213E-1,5.509293365E0,5.581596893E0
7.926977667E0,3.983216858E-1,8.936416626E-1,7.173981628E0,7.240391425E0
7.936948667E0,6.939569092E-1,5.066963196E-1,9.571994934E0,9.610484086E0
7.946919667E0,6.857240295E-1,-3.685336304E-1,1.314641190E1,1.316944115E1
7.956890667E0,9.366023254E-1,-1.037642212E0,1.676319077E1,1.682137004E1
7.966862667E0,2.521356812E0,-4.975653076E-1,1.821517136E1,1.839557770E1
7.976833667E0,4.781057739E0,1.066532135E0,1.777897842E1,1.844147710E1
7.986804667E0,7.775580597E0,3.762126617E0,1.646081955E1,1.858956241E1
7.996775667E0,1.078058167E1,7.010970612E0,1.665496582E1,2.104192331E1
8.006747667E0,1.205024139E1,9.007069702E0,1.819541245E1,2.360950352E1
8.016718667E0,1.146690445E1,9.016949158E0,2.147194885E1,2.595842555E1
8.026689667E0,9.457483063E0,6.801556091E0,2.566892120E1,2.818862655E1
8.036660667E0,7.056326294E0,3.498674469E0,2.918466019E1,3.022874218E1
8.046632667E0,4.211941223E0,1.103355560E0,3.297522766E1,3.326144136E1
8.056603667E0,3.096161499E0,1.053060150E0,3.836970978E1,3.850882730E1
8.066574667E0,3.734134827E0,2.230062561E0,4.294734055E1,4.316701289E1
8.076545667E0,5.080135803E0,3.271147614E0,4.148997116E1,4.192762685E1
8.086516667E0,6.172564087E0,4.121678925E0,3.512954773E1,3.590506800E1
8.096488667E0,6.328240356E0,4.011957092E0,2.795376984E1,2.894055414E1
8.106459667E0,5.147046661E0,3.738775177E0,2.099803436E1,2.194055551E1
8.116430667E0,3.457360382E0,3.485950928E0,1.510868134E1,1.588639186E1
8.126401667E0,2.015109558E0,2.590063934E0,1.136810989E1,1.183228720E1
8.136373667E0,8.997789001E-1,1.386566620E0,8.503816223E0,8.662970589E0
8.146344667E0,-3.248245239E-2,3.948788452E-1,6.784042511E0,6.795602784E0
8.156315667E0,-1.153650970E0,-6.051914978E-1,5.947881317E0,6.088879985E0
8.166286667E0,-2.639311523E0,-1.547931061E0,5.131179657E0,5.974199575E0
8.176258667E0,-3.733087006E0,-2.015858002E0,3.746109924E0,5.659766924E0
8.186229667E0,-4.256698151E0,-1.700164490E0,2.180515594E0,5.075892699E0
8.196200667E0,-4.432582397E0,-1.166973267E0,3.603007507E-1,4.597763581E0
8.206171667E0,-4.440665588E0,-1.255289612E0,-1.747316437E0,4.934407523E0
8.216143667E0,-4.454586639E0,-1.354233856E0,-3.545826416E0,5.852365029E0
8.226114667E0,-4.531077576E0,-1.447340240E0,-4.933740234E0,6.853265679E0
8.236085667E0,-4.615502014E0,-1.466799774E0,-5.933660889E0,7.659157392E0
8.246056667E0,-4.069736938E0,-1.321751404E0,-6.567592621E0,7.838562263E0
8.256027667E0,-3.715423737E0,-1.248852997E0,-6.140830078E0,7.285176827E0
8.265999667E0,-3.647764435E0,-1.279988251E0,-4.698130188E0,6.084158328E0
8.275970667E0,-3.323239288E0,-1.457818451E0,-2.920426941E0,4.658116306E0
8.285941667E0,-3.172502747E0,-1.556613007E0,-2.312241669E0,4.223065150E0
8.295912667E0,-3.159479828E0,-1.527872772E0,-2.520608368E0,4.320899737E0
8.305884667E0,-3.063229980E0,-1.473685455E0,-2.931952972E0,4.489039426E0
8.315855667E0,-2.978356476E0,-1.259181519E0,-3.002007294E0,4.412277551E0
8.325826667E0,-2.662962341E0,-9.277706909E-1,-2.661764832E0,3.877772415E0
8.335797667E0,-2.151326294E0,-5.391787720E-1,-1.667831726E0,2.774992115E0
8.345769667E0,-1.434766388E0,-7.170089722E-2,1.425036621E-1,1.443607599E0
8.355740667E0,-7.188052368E-1,5.194198608E-2,2.195185089E0,2.310458074E0
8.365711667E0,-3.288661194E-1,-5.837860107E-3,5.122348022E0,5.132897454E0
8.375682667E0,-1.179547119E-1,-3.423381042E-1,7.400610352E0,7.409463022E0
8.385654667E0,-2.874023438E-1,-1.125359802E0,8.372688904E0,8.452866630E0
8.395625667E0,-6.318360901E-1,-1.545236664E0,7.950117645E0,8.123505633E0
8.405596667E0,-5.764512634E-1,-1.375190277E0,6.782845001E0,6.944813221E0
8.415567667E0,-4.314028931E-1,-1.181642761E0,6.318360901E0,6.442365446E0
8.425538667E0,-4.475692749E-1,-1.087338867E0,6.237978058E0,6.347833829E0
8.435510667E0,-3.815565491E-1,-7.572752380E-1,6.339616699E0,6.396076225E0
8.445481667E0,-5.065466309E-1,-9.870474243E-1,7.315587158E0,7.399234256E0
8.455452667E0,-4.619393921E-1,-1.500629425E0,8.634494476E0,8.776090903E0
8.465423667E0,2.174977112E-1,-1.919159088E0,1.105630829E1,1.122374402E1
8.475395667E0,8.409512329E-1,-2.635868683E0,1.436158493E1,1.462566663E1
8.485366667E0,1.482666779E0,-3.122955780E0,1.694640976E1,1.729543169E1
8.495337667E0,2.392175446E0,-2.924618225E0,1.796414337E1,1.835718775E1
8.505308667E0,3.519032135E0,-2.436183929E0,1.828447723E1,1.877872964E1
8.515280667E0,5.049449615E0,-1.216220856E0,1.907079208E1,1.976540527E1
8.525251667E0,6.984625397E0,4.320016479E-1,1.954635315E1,2.076129906E1
8.535222667E0,8.207432556E0,1.529968414E0,1.959709763E1,2.130138465E1
8.545193667E0,8.477021942E0,2.029329987E0,1.886601791E1,2.078231732E1
8.555165667E0,8.086633759E0,2.885699158E0,1.798869232E1,1.993273580E1
8.565136667E0,6.893165588E0,4.100273438E0,1.826995743E1,1.995292757E1
8.575107667E0,6.061644745E0,4.404590607E0,2.058609100E1,2.190732978E1
8.585078667E0,5.838458862E0,3.394940186E0,2.411096100E1,2.503900280E1
8.595049667E0,6.352489929E0,2.315385132E0,2.846750153E1,2.925942207E1
8.605021667E0,7.114704895E0,1.623823242E0,3.229459305E1,3.310885936E1
8.614992667E0,7.769742737E0,1.445094910E0,3.399041656E1,3.489707179E1
8.624963667E0,7.874824219E0,1.447938995E0,3.296579727E1,3.392422694E1
8.634934667E0,7.390431519E0,1.647623749E0,2.864353546E1,2.962744109E1
8.644906667E0,6.533463593E0,1.948797455E0,2.207235031E1,2.310135507E1
8.654877417E0,5.714815979E0,2.646945648E0,1.489432709E1,1.617116020E1
8.664848417E0,4.959636383E0,3.197500763E0,8.916058960E0,1.069196481E1
8.674819417E0,4.316423950E0,3.435056763E0,5.131928101E0,7.534442030E0
8.684791417E0,3.993096313E0,3.544179840E0,3.351530457E0,6.303870661E0
8.694762417E0,3.771107941E0,3.660637665E0,3.009940796E0,6.056506155E0
8.704733417E0,3.162772980E0,3.533701630E0,3.319796448E0,5.788888372E0
8.714704417E0,2.090402985E0,2.998265076E0,3.691323853E0,5.194732898E0
8.724675417E0,8.150550842E-1,2.246678009E0,3.918251953E0,4.589616023E0
8.734647417E0,-6.613247681E-1,1.265618134E0,4.142335968E0,4.381562162E0
8.744618417E0,-1.698517914E0,3.311114502E-1,3.902384949E0,4.268864742E0
8.754589417E0,-2.429897003E0,-3.418890381E-1,2.640808411E0,3.604879557E0
8.764560417E0,-2.865940247E0,-4.903802490E-1,1.127605133E0,3.118586157E0
8.774532417E0,-3.183579712E0,-4.032614136E-1,-4.752616882E-1,3.244021150E0
8.784503417E0,-3.336561584E0,-4.305047607E-1,-1.752405853E0,3.793270862E0
8.794474417E0,-3.211272125E0,-3.634442139E-1,-2.475252686E0,4.070778331E0
8.804445417E0,-3.017874298E0,-1.794767761E-1,-2.986289978E0,4.249435848E0
8.814417417E0,-2.659968567E0,-2.395019531E-3,-2.823278961E0,3.878961537E0
8.824388417E0,-2.090103607E0,1.746867371E-1,-2.058070221E0,2.938486273E0
8.834359417E0,-1.714833984E0,-1.993853760E-1,-5.331912231E-1,1.806848915E0
8.844330417E0,-1.750160522E0,-8.827143860E-1,1.126108246E0,2.260611936E0
8.854301417E0,-1.650318146E0,-1.285676422E0,2.374063110E0,3.164283410E0
8.864273417E0,-1.294807434E0,-1.228645020E0,3.328328705E0,3.776753479E0
8.874244417E0,-9.395960999E-1,-1.151854706E0,4.037553864E0,4.302493614E0
8.884215417E0,-7.244934082E-1,-1.133742371E0,4.176614685E0,4.387980480E0
8.894186417E0,-7.719447327E-1,-9.249266052E-1,3.784879303E0,3.971989329E0
8.904158417E0,-9.300160217E-1,-5.405259705E-1,3.246598663E0,3.420160962E0
8.914129417E0,-1.023721161E0,-3.429368591E-1,2.990481262E0,3.179400711E0
8.924100417E0,-1.036295013E0,-1.541793823E-1,3.114573212E0,3.286068308E0
8.934071417E0,-9.737251282E-1,1.058299255E-1,3.653452606E0,3.782466992E0
8.944043417E0,-5.792953491E-1,4.216731262E-1,4.515509949E0,4.572004093E0
8.954014417E0,-6.885681152E-3,8.258326721E-1,5.735473022E0,5.794626632E0
8.963985417E0,8.328680420E-1,1.411265259E0,7.267387390E0,7.449849548E0
8.973956417E0,1.797911224E0,1.538949738E0,9.234297180E0,9.532738089E0
8.983927417E0,1.732946320E0,9.457333374E-1,1.180654816E1,1.197046757E1
8.993899417E0,1.329385529E0,5.553451538E-2,1.334789291E1,1.341404470E1
9.003870417E0,8.931925964E-1,-1.140029297E0,1.393048141E1,1.400556219E1
9.013841417E0,-4.424798584E-1,-2.740351410E0,1.464674194E1,1.490746001E1
9.023812417E0,-1.577419739E0,-4.053720245E0,1.474942841E1,1.537746855E1
9.033784417E0,-1.777852936E0,-4.629872131E0,1.358904144E1,1.446577078E1
9.043755417E0,-1.141975250E0,-4.885839844E0,1.327469513E1,1.419130259E1
9.053726417E0,1.354982300E0,-4.526137848E0,1.397913025E1,1.475594739E1
9.063697417E0,6.177952881E0,-2.058818665E0,1.518367538E1,1.652119349E1
9.073668417E0,1.052266800E1,1.780996399E0,1.690329941E1,1.999049826E1
9.083640417E0,1.319955139E1,5.475164337E0,1.736344254E1,2.248765702E1
9.093611417E0,1.389126297E1,7.284451904E0,1.823223587E1,2.405088047E1
9.103582417E0,1.200743042E1,6.953340454E0,2.097453323E1,2.514872508E1
9.113553417E0,8.985065460E0,5.311105499E0,2.424433365E1,2.639558594E1
9.123525417E0,6.269412689E0,3.562142487E0,2.586291779E1,2.684930001E1
9.133496417E0,3.638184357E0,2.567760315E0,2.527509018E1,2.566437145E1
9.143467417E0,2.055226135E0,2.129471741E0,2.391412033E1,2.409655070E1
9.153438417E0,1.239572296E0,1.351240082E0,2.479578690E1,2.486349607E1
9.163410417E0,6.547384644E-1,-2.341131592E-1,2.736878632E1,2.737761779E1
9.173381417E0,6.316864014E-2,-2.321073303E0,2.831167557E1,2.840673063E1
9.183352417E0,-2.909948730E-1,-3.294948120E0,2.623684021E1,2.644452959E1
9.193323417E0,-3.332070923E-1,-2.737657013E0,2.251902145E1,2.268726780E1
9.203294417E0,2.401007080E-1,-1.576222229E0,1.844254852E1,1.851134033E1
9.213266417E0,1.397344208E0,-2.583627319E-1,1.474942841E1,1.481772454E1
9.223237417E0,2.233056335E0,8.053253174E-1,1.080063995E1,1.105843175E1
9.233208417E0,2.690654755E0,1.784289551E0,7.036118317E0,7.741464537E0
9.243179417E0,2.582280121E0,2.827170868E0,4.423900452E0,5.850808572E0
9.253151417E0,1.894460449E0,3.032244415E0,2.961890717E0,4.642874455E0
9.263122417E0,6.541397095E-1,2.466870117E0,1.802102509E0,3.124247171E0
9.273093417E0,-4.370910645E-1,1.696721649E0,1.349294128E0,2.211449208E0
9.283064417E0,-1.509161682E0,8.571176147E-1,1.248553619E0,2.138014436E0
9.293035417E0,-2.425256653E0,5.987548828E-4,4.429289246E-1,2.465371417E0
9.303007417E0,-2.956352234E0,-3.445834351E-1,-1.004261627E0,3.141225508E0
9.312978417E0,-2.964734802E0,-3.900888062E-1,-2.514770508E0,3.907159125E0
9.322949417E0,-2.672093353E0,-3.724255371E-1,-4.010160828E0,4.833236342E0
9.332920417E0,-2.390379181E0,-3.110531616E-1,-4.520898743E0,5.123396543E0
9.342892417E0,-2.065105591E0,-2.390528870E-1,-4.400549011E0,4.866892128E0
9.352863417E0,-1.859433289E0,-2.647993469E-1,-4.128265228E0,4.535436544E0
9.362834417E0,-1.875300293E0,-4.487667847E-1,-3.416944427E0,3.923474485E0
9.372805417E0,-1.875150604E0,-9.979747009E-1,-2.018851776E0,2.930512888E0
9.382776417E0,-2.227817230E0,-1.777703247E0,-5.221142578E-1,2.897585502E0
9.392748417E0,-2.528092804E0,-2.407892761E0,1.093326416E0,3.658491961E0
9.402719417E0,-2.461481323E0,-2.561623077E0,2.271676025E0,4.216789663E0
9.412690417E0,-1.824256439E0,-2.264940033E0,3.176694031E0,4.306884010E0
9.422661417E0,-9.452842712E-1,-1.967957611E0,3.764072571E0,4.351397687E0
9.432633417E0,-3.399430847E-1,-1.512754211E0,3.487298126E0,3.816442693E0
9.442604417E0,-4.625381470E-2,-9.945318604E-1,3.125500488E0,3.280241811E0
9.452575417E0,1.942959595E-1,-6.601272583E-1,3.067121887E0,3.143366919E0
9.462546417E0,3.064128113E-1,-2.936892700E-1,3.569626923E0,3.594771003E0
9.472517417E0,3.968247986E-1,-8.262817383E-2,4.505630493E0,4.523826199E0
9.482489417E0,5.406756592E-1,-1.830693054E-1,5.538632355E0,5.567970268E0
9.492460417E0,8.996292114E-1,-4.818479919E-1,6.257736969E0,6.340408676E0
9.502431417E0,1.023870850E0,-4.863386536E-1,6.897805939E0,6.990319275E0
9.512402417E0,1.423390045E0,-3.760180664E-1,7.875123596E0,8.011554185E0
9.522374417E0,1.846410370E0,-4.011657715E-2,9.252559204E0,9.435077764E0
9.532345417E0,2.585273895E0,7.369175720E-1,1.068029022E1,1.101341400E1
9.542316417E0,3.221600647E0,2.123184814E0,1.115390533E1,1.180238233E1
9.552287417E0,3.110980682E0,3.371888123E0,1.105316483E1,1.196746769E1
9.562258417E0,2.996768188E0,3.686533813E0,1.167961212E1,1.260890520E1
9.572230417E0,3.171454926E0,2.867437134E0,1.262789017E1,1.333206406E1
9.582201417E0,3.523822174E0,1.855242004E0,1.347557739E1,1.405170565E1
9.592172417E0,4.447700958E0,2.219284973E0,1.431802551E1,1.515628992E1
9.602143417E0,5.631738739E0,4.166585541E0,1.568438416E1,1.717780028E1
9.612115417E0,6.666237488E0,5.719606018E0,1.686078781E1,1.901154336E1
9.622086417E0,7.350165253E0,7.281757507E0,1.846545090E1,2.116652542E1
9.632057417E0,8.652906189E0,8.664282532E0,2.124591888E1,2.452206448E1
9.642028417E0,9.773925018E0,8.985065460E0,2.478186584E1,2.811408697E1
9.652000292E0,1.015578094E1,7.910899200E0,2.703168732E1,2.994051322E1
9.661971292E0,9.928703156E0,6.405330048E0,2.778926193E1,3.019686206E1
9.671942292E0,8.911418610E0,4.888534241E0,2.815195770E1,2.993065103E1
9.681913292E0,8.635991364E0,3.462150421E0,3.008743286E1,3.149318099E1
9.691884292E0,8.689579926E0,2.206711121E0,3.333867188E1,3.452311422E1
9.701856292E0,8.113278351E0,3.619473267E-1,3.329586090E1,3.427200964E1
9.711827292E0,7.261549530E0,-1.091530151E0,2.822320953E1,2.916283759E1
9.721798292E0,6.606960754E0,-1.147364044E0,2.152314240E1,2.254360293E1
9.731769292E0,6.066285095E0,-5.758525085E-1,1.535476959E1,1.651969643E1
9.741741292E0,5.232818298E0,8.068222046E-2,1.055080948E1,1.177745633E1
9.751712292E0,4.053271179E0,7.929011536E-1,7.170089722E0,8.274532380E0
9.761683292E0,2.926863556E0,1.476379852E0,5.317093048E0,6.246415470E0
9.771654292E0,2.212249603E0,1.892514496E0,5.299280090E0,6.046323585E0
9.781625292E0,1.652713165E0,1.497336273E0,6.086193695E0,6.481915644E0
9.791597292E0,1.275647278E0,5.917195129E-1,6.653663635E0,6.800635833E0
9.801568292E0,9.616003418E-1,-2.347119141E-1,7.094347229E0,7.163066906E0
9.811539292E0,4.670288086E-1,-6.236032104E-1,6.425388336E0,6.472450243E0
9.821510292E0,-1.248403931E-1,-7.327262878E-1,4.857698364E0,4.914235071E0
9.831482292E0,-9.246272278E-1,-5.382806396E-1,3.365750885E0,3.531707884E0
9.841453292E0,-1.848655701E0,-3.873944092E-1,2.190245361E0,2.892192433E0
9.851424292E0,-2.403102722E0,-1.574725342E-1,6.137237549E-1,2.485227784E0
9.861395292E0,-2.581980743E0,1.487905884E-1,-8.238867188E-1,2.714323585E0
9.871366292E0,-2.474354553E0,6.905140686E-1,-1.499282227E0,2.974405374E0
9.881338292E0,-2.031874695E0,1.219963074E0,-1.811682587E0,2.983122269E0
9.891309292E0,-1.641935577E0,1.349743195E0,-1.580413513E0,2.648672498E0
9.901280292E0,-1.595681763E0,1.185384979E0,-1.409918060E0,2.437048784E0
9.911251292E0,-1.614392853E0,1.092128906E0,-1.739682312E0,2.612566626E0
9.921222292E0,-1.289418640E0,1.165626068E0,-1.519190826E0,2.308511496E0
9.931194292E0,-1.062041473E0,9.084608459E-1,-8.934919739E-1,1.658783020E0
9.941165292E0,-1.157393188E0,6.286926270E-1,-4.357438660E-1,1.387330577E0
9.951136292E0,-1.233584747E0,4.674778748E-1,-1.281335449E-1,1.325399976E0
9.961107292E0,-1.236877899E0,3.370989990E-1,-1.392105103E-2,1.282067264E0
9.971079292E0,-1.258582764E0,3.338058472E-1,-1.219963074E-1,1.307799685E0
9.981050292E0,-1.156495056E0,4.694238281E-1,-2.474354553E-1,1.272424398E0
9.991021292E0,-5.854325867E-1,8.683442688E-1,-1.213975525E-1,1.054272474E0
1.000099229E1,5.358856201E-2,1.346300354E0,2.615061951E-1,1.372509332E0
1.001096329E1,2.210902405E-1,1.334325256E0,6.182144165E-1,1.487109226E0
1.002093529E1,2.775228882E-1,1.168769531E0,1.076860657E0,1.613279283E0
1.003090629E1,4.471202087E-1,1.244661713E0,1.537303162E0,2.027905390E0
1.004087729E1,5.891748047E-1,1.304686890E0,2.182611237E0,2.610196667E0
1.005084829E1,3.944297791E-1,1.159788208E0,3.243155823E0,3.466805912E0
1.006081929E1,1.977388000E-1,1.141526184E0,4.438569946E0,4.587274336E0
1.007079129E1,6.316864014E-2,1.165626068E0,5.673801270E0,5.792641475E0
1.008076229E1,-4.340972900E-3,1.136137390E0,7.267537079E0,7.355808739E0
1.009073329E1,-7.679031372E-2,8.437953186E-1,1.047671356E1,1.051091882E1
1.010070429E1,1.904040527E-1,9.894424438E-2,1.445798447E1,1.445957671E1
1.011067629E1,1.735041962E0,-4.237687683E-1,1.834555023E1,1.843228591E1
1.012064729E1,4.236041107E0,1.751358032E-1,2.103605530E1,2.145903864E1
1.013061829E1,6.387966156E0,1.690584412E0,2.125145737E1,2.225508094E1
1.014058929E1,8.454418945E0,3.212619324E0,1.982477417E1,2.179036011E1
1.015056029E1,1.036160294E1,4.324806519E0,1.835108871E1,2.151346610E1
1.016053229E1,1.040426422E1,5.215753784E0,1.748558853E1,2.100472823E1
1.017050329E1,9.413773956E0,6.017785950E0,1.755279877E1,2.080705727E1
1.018047429E1,8.060138855E0,6.614594879E0,1.938573715E1,2.201194014E1
1.019044529E1,7.480095062E0,6.346652069E0,2.268517593E1,2.471536004E1
1.020041729E1,8.030051422E0,5.840105438E0,2.707300140E1,2.883636528E1
1.021038829E1,8.423283691E0,5.465434570E0,3.032648575E1,3.194555401E1
1.022035929E1,8.335416412E0,4.816234589E0,3.192216751E1,3.334216641E1
1.023033029E1,8.549321594E0,4.271966400E0,3.192276627E1,3.332271902E1
1.024030129E1,9.611662445E0,4.514462128E0,2.977009277E1,3.160732268E1
1.025027329E1,1.094733490E1,5.522465973E0,2.720547592E1,2.984090635E1
1.026024429E1,1.206146805E1,6.507417755E0,2.458667175E1,2.814835564E1
1.027021529E1,1.228495331E1,6.793921967E0,2.053714279E1,2.487672984E1
1.028018629E1,1.151525391E1,6.539750519E0,1.573976898E1,2.056963143E1
1.029015729E1,9.991123352E0,6.187083893E0,1.089688980E1,1.602637702E1
1.030012929E1,8.231831818E0,5.887556763E0,7.093898163E0,1.235919782E1
1.031010029E1,6.596781921E0,5.344935150E0,4.812192993E0,9.759255345E0
1.032007129E1,5.037624207E0,4.540358276E0,3.631298676E0,7.692778496E0
1.033004229E1,3.458707581E0,3.725153503E0,3.312461700E0,6.067275276E0
1.034001429E1,1.826352081E0,3.040177917E0,3.459006958E0,4.954086478E0
1.034998529E1,6.807843018E-1,2.556533661E0,2.986289978E0,3.989644026E0
1.035995629E1,-6.421646118E-2,2.165846100E0,1.838476868E0,2.841656256E0
1.036992729E1,-7.773335266E-1,1.774559784E0,4.936734009E-1,1.999255678E0
1.037989829E1,-1.051862640E0,1.512005768E0,-4.317022705E-1,1.891809532E0
1.038987029E1,-1.355880432E0,1.209035797E0,-1.343306580E0,2.259347665E0
1.039984129E1,-1.749262390E0,7.936495972E-1,-1.978435822E0,2.757536381E0
1.040981229E1,-2.011966095E0,2.748284912E-1,-2.251168671E0,3.031715463E0
1.041978329E1,-2.335443420E0,-1.573228455E-1,-2.392474823E0,3.347085632E0
1.042975429E1,-2.600691833E0,-4.891827393E-1,-1.824855194E0,3.214497510E0
1.043972629E1,-2.999462585E0,-8.527766418E-1,-5.860313416E-1,3.172922397E0
1.044969729E1,-3.155288544E0,-1.223405914E0,3.549119568E-1,3.402723956E0
1.045966829E1,-3.207230530E0,-1.576371918E0,9.815089417E-1,3.706026969E0
1.046963929E1,-3.233725433E0,-1.897005157E0,1.217268677E0,3.941744763E0
1.047961129E1,-3.256927185E0,-1.990410919E0,1.170715485E0,3.992478561E0
1.048958229E1,-3.113525391E0,-1.929637299E0,1.064735870E0,3.814603903E0
1.049955329E1,-2.606529694E0,-1.611249390E0,1.387165375E0,3.363680933E0
1.050952429E1,-2.106868744E0,-1.056353302E0,1.850002899E0,2.996212431E0
1.051949529E1,-1.702409821E0,-7.873626709E-1,1.919159088E0,2.683525811E0
1.052946729E1,-1.537901917E0,-9.268725586E-1,2.343376923E0,2.952228048E0
1.053943829E1,-1.587448883E0,-1.465003510E0,3.215313721E0,3.873560579E0
1.054940929E1,-1.441053314E0,-2.066003723E0,4.369862823E0,5.043878184E0
1.055938029E1,-9.250762939E-1,-2.097288666E0,5.388195190E0,5.855513070E0
1.056935129E1,-3.547622681E-2,-1.690285034E0,6.091881866E0,6.322131502E0
1.057932329E1,6.806346130E-1,-1.302591248E0,6.138584747E0,6.312070194E0
1.058929429E1,1.185834045E0,-8.098159790E-1,5.470973053E0,5.656284156E0
1.059926529E1,1.534758453E0,-2.350112915E-2,4.296215973E0,4.562182318E0
1.060923629E1,1.896855469E0,7.429051208E-1,3.449875946E0,4.006446397E0
1.061920829E1,2.489772491E0,1.214574280E0,3.649261322E0,4.581622631E0
1.062917929E1,2.999911652E0,1.389111328E0,4.629572754E0,5.688764724E0
1.063915029E1,2.897973633E0,1.203197937E0,5.363945618E0,6.214326113E0
1.064912129E1,2.666854248E0,7.315287781E-1,5.754034424E0,6.384054988E0
1.065909217E1,2.372266846E0,2.308200073E-1,6.597530365E0,7.014865272E0
1.066906417E1,2.490071869E0,1.371148682E-1,8.260122986E0,8.628377028E0
1.067903517E1,3.524869995E0,1.209035797E0,1.092622879E1,1.154421724E1
1.068900617E1,5.260061646E0,3.653302917E0,1.319191727E1,1.466429514E1
1.069897717E1,7.153174896E0,7.053033142E0,1.408855270E1,1.730319349E1
1.070894817E1,7.795189819E0,9.861043854E0,1.385488861E1,1.870730094E1
1.071892017E1,7.052883453E0,1.132395172E1,1.226085342E1,1.811914938E1
1.072889117E1,5.732479248E0,1.195923065E1,1.131062943E1,1.743028554E1
1.073886217E1,4.511168976E0,1.200264038E1,1.242625946E1,1.785569785E1
1.074883317E1,3.149899750E0,1.147274231E1,1.571971069E1,1.971433460E1
1.075880517E1,3.280128937E0,9.187444611E0,2.068608307E1,2.287099510E1
1.076877617E1,4.974605255E0,6.760092316E0,2.618429947E1,2.749660132E1
1.077874717E1,8.795559540E0,6.021827545E0,3.346021912E1,3.511709752E1
1.078871817E1,1.371507935E1,6.088888092E0,4.102024796E1,4.367881296E1
1.079868917E1,1.709579910E1,5.415737915E0,4.225907181E1,4.590670664E1
1.080866117E1,1.775921951E1,4.753365326E0,3.840952698E1,4.258258003E1
1.081863217E1,1.790082504E1,4.719535675E0,3.239084290E1,3.730791146E1
1.082860317E1,1.658027115E1,5.683231659E0,2.570409805E1,3.111117436E1
1.083857417E1,1.429602127E1,6.599626007E0,1.953467743E1,2.509053427E1
1.084854517E1,1.189875641E1,6.609954529E0,1.414767975E1,1.963233927E1
1.085851717E1,8.986262970E0,5.951623535E0,1.005593857E1,1.474098522E1
1.086848817E1,6.400090942E0,4.730163574E0,7.480244751E0,1.092198119E1
1.087845917E1,3.953728180E0,3.128793640E0,6.490652618E0,8.218873863E0
1.088843017E1,1.728006592E0,1.687141571E0,6.319109344E0,6.764879627E0
1.089840117E1,1.005908203E-1,6.096821594E-1,5.613027649E0,5.646938129E0
1.090837317E1,-1.106499023E0,-5.718109131E-2,4.200115814E0,4.343798179E0
1.091834417E1,-1.848356323E0,-2.294728088E-1,2.464026031E0,3.088770492E0
1.092831517E1,-2.543510742E0,-3.391946411E-1,4.489164734E-1,2.605000173E0
1.093828617E1,-3.254981232E0,-4.412823486E-1,-1.953587494E0,3.821797617E0
1.094825717E1,-3.642225952E0,-3.288661194E-1,-4.031416626E0,5.443003107E0
1.095822917E1,-3.801644440E0,-2.924917603E-1,-4.807103577E0,6.135657803E0
1.096820017E1,-3.777394867E0,-3.236270142E-1,-4.715793457E0,6.050797828E0
1.097817117E1,-3.488795013E0,-5.132826233E-1,-3.944896545E0,5.291253013E0
1.098814217E1,-3.045417023E0,-9.136999512E-1,-2.973566437E0,4.353333182E0
1.099811317E1,-2.610122223E0,-1.224753113E0,-1.763931885E0,3.379972470E0
1.100808517E1,-2.258353729E0,-1.469643860E0,-4.221221924E-1,2.727306691E0
1.101805617E1,-2.161654816E0,-1.847308502E0,-2.365081787E-2,2.843564595E0
1.102802717E1,-1.850901031E0,-1.856439514E0,-4.569996643E-1,2.661024425E0
1.103799817E1,-1.425036621E0,-1.316512299E0,-9.213340759E-1,2.147740786E0
1.104797017E1,-1.355281677E0,-9.663903809E-1,-1.397942963E0,2.173693474E0
1.105794117E1,-1.449136505E0,-1.165925446E0,-1.637594604E0,2.478123250E0
1.106791217E1,-1.591340790E0,-1.423539734E0,-1.409468994E0,2.558404528E0
1.107788317E1,-1.861977997E0,-1.504521332E0,-1.096469879E0,2.633019691E0
1.108785417E1,-2.076631622E0,-1.573078766E0,-7.559280396E-1,2.712637628E0
1.109782617E1,-1.984273682E0,-1.647474060E0,1.281335449E-1,2.582233728E0
1.110779717E1,-1.678759003E0,-1.607207794E0,9.301657104E-1,2.503309196E0
1.111776817E1,-1.122066650E0,-1.268761597E0,1.660646667E0,2.372032232E0
1.112773917E1,-5.492079163E-1,-7.985893250E-1,2.572101288E0,2.748650447E0
1.113771017E1,-2.023791504E-1,-4.909790039E-1,3.422333221E0,3.463290687E0
1.114768217E1,4.460723877E-2,-2.568658447E-1,4.054917755E0,4.063290276E0
1.115765317E1,4.233197021E-1,-4.894821167E-2,4.230203247E0,4.251613224E0
1.116762417E1,8.170010376E-1,1.802252197E-1,4.575535126E0,4.651396942E0
1.117759517E1,1.215622101E0,5.366340637E-1,4.926704865E0,5.102757493E0
1.118756617E1,1.654659119E0,9.639953613E-1,5.273383942E0,5.610326377E0
1.119753817E1,2.000739441E0,1.474284210E0,6.467301178E0,6.928380530E0
1.120750917E1,2.451152802E0,2.376907196E0,7.833809509E0,8.545549093E0
1.121748017E1,3.388204193E0,3.169209595E0,9.759554901E0,1.080614311E1
1.122745117E1,4.316723328E0,3.205134888E0,1.280646881E1,1.388929924E1
1.123742217E1,5.626799011E0,2.702480164E0,1.641890671E1,1.756544231E1
1.124739417E1,7.270680542E0,2.784659271E0,1.855616226E1,2.012332678E1
1.125736517E1,9.173822937E0,3.761378174E0,1.897648819E1,2.141060712E1
1.126733617E1,1.156599838E1,5.863307190E0,2.002999741E1,2.386108727E1
1.127730717E1,1.400308044E1,8.695118408E0,2.200035004E1,2.749012091E1
1.128727917E1,1.470646774E1,1.086156326E1,2.086825424E1,2.774414866E1
1.129725017E1,1.337453751E1,1.229064148E1,1.719159988E1,2.500978265E1
1.130722117E1,1.184546722E1,1.337154373E1,1.561238388E1,2.372466661E1
1.131719217E1,1.026325745E1,1.381447266E1,1.705149124E1,2.422658585E1
1.132716317E1,9.452543335E0,1.296723450E1,1.940085571E1,2.517723075E1
1.133713517E1,9.487869873E0,1.055799454E1,2.232831802E1,2.645835802E1
1.134710617E1,1.018931122E1,7.938441925E0,2.751817566E1,3.039886371E1
1.135707717E1,1.044482986E1,6.512058105E0,3.330948257E1,3.551088567E1
1.136704817E1,1.283475998E1,4.416865082E0,3.408412170E1,3.668742446E1
1.137701917E1,1.477846802E1,2.910098419E0,3.227453476E1,3.561625168E1
1.138699117E1,1.318907318E1,4.025728455E0,2.682227280E1,3.015945057E1
1.139696217E1,1.186896835E1,5.662574615E0,1.884296585E1,2.297813141E1
1.140693317E1,1.139011414E1,7.070397034E0,1.225336899E1,1.816233096E1
1.141690417E1,9.638606415E0,7.272327118E0,7.383845215E0,1.415311434E1
1.142687517E1,7.427105255E0,6.863227844E0,4.079616394E0,1.090454304E1
1.143684717E1,4.677173767E0,5.445825348E0,2.717449036E0,7.675773409E0
1.144681817E1,1.641785889E0,3.294049988E0,2.709814911E0,4.570483900E0
1.145678917E1,-1.228944397E0,1.243763580E0,3.704496460E0,4.096406498E0
1.146676017E1,-3.450325012E0,-3.023712158E-1,4.133953400E0,5.393119853E0
1.147673117E1,-4.497696991E0,-1.445543976E0,3.864663391E0,6.103646347E0
1.148670317E1,-4.724176025E0,-1.848955078E0,3.032843170E0,5.910550879E0
1.149667417E1,-4.260739746E0,-1.593286743E0,1.211281128E0,4.707405634E0
1.150664517E1,-3.316054230E0,-7.119195557E-1,-1.544637909E0,3.726788346E0
1.151661617E1,-2.626288605E0,7.548802185E-1,-3.882925415E0,4.748088643E0
1.152658817E1,-2.479593658E0,1.700912933E0,-6.266119537E0,6.950233347E0
1.153655917E1,-2.173629913E0,1.914967804E0,-7.528145142E0,8.066271627E0
1.154653017E1,-1.929487610E0,1.428778839E0,-7.302863617E0,7.687401929E0
1.155650117E1,-1.949545898E0,3.888912964E-1,-5.744753723E0,6.078993419E0
1.156647217E1,-2.294578400E0,-6.113287354E-1,-3.459755402E0,4.196274573E0
1.157644417E1,-2.790048065E0,-1.570833435E0,-1.113684082E0,3.390011522E0
1.158641517E1,-3.076701965E0,-2.451901245E0,5.715115356E-1,3.975492439E0
1.159638617E1,-3.393293610E0,-3.002456360E0,1.697919159E0,4.838606740E0
1.160635717E1,-3.370989990E0,-3.022814026E0,2.051034851E0,4.970686282E0
1.161632817E1,-2.903961182E0,-2.668351135E0,1.636397095E0,4.269763902E0
1.162630017E1,-2.477198639E0,-2.039658508E0,9.208850098E-1,3.338375223E0
1.163627117E1,-2.194286957E0,-1.544787598E0,5.917195129E-1,2.747980341E0
1.164624217E1,-2.008373566E0,-1.382674713E0,3.017724609E-1,2.456912770E0
1.165621383E1,-1.820214844E0,-1.473236389E0,4.878355408E-1,2.391984751E0
1.166618483E1,-1.415157166E0,-1.749112701E0,1.328786774E0,2.612994324E0
1.167615683E1,-9.910890198E-1,-1.881437531E0,2.090552673E0,2.982025336E0
1.168612783E1,-3.881428528E-1,-1.887724457E0,2.680326233E0,3.301258429E0
1.169609883E1,4.046086121E-1,-1.763632507E0,2.872676239E0,3.395051770E0
1.170606983E1,9.865983582E-1,-1.442550201E0,2.614912262E0,3.145169875E0
1.171604083E1,1.097368011E0,-1.065184937E0,2.444117432E0,2.883148543E0
1.172601283E1,9.714797974E-1,-5.176235962E-1,2.918181610E0,3.118892607E0
1.173598383E1,6.427633667E-1,-2.956352234E-1,4.106560364E0,4.167059269E0
1.174595483E1,5.771997070E-1,-1.392105103E-1,6.071673889E0,6.100636269E0
1.175592583E1,1.512305145E0,4.104464722E-1,9.331445160E0,9.462103462E0
1.176589683E1,3.554807739E0,1.077309723E0,1.466126175E1,1.512447852E1
1.177586883E1,6.544091492E0,2.065404968E0,2.100252502E1,2.209518247E1
1.178583983E1,9.177714844E0,3.511398010E0,2.621139313E1,2.799281150E1
1.179581083E1,1.036025574E1,4.711901550E0,2.666584808E1,2.899317798E1
1.180578183E1,1.065753754E1,5.968388672E0,2.214794312E1,2.529300603E1
1.181575283E1,1.103385498E1,7.311844940E0,1.708053085E1,2.160910841E1
1.182572483E1,1.128443390E1,7.701035614E0,1.414827850E1,1.966769388E1
1.183569583E1,1.023361908E1,7.310198364E0,1.387180344E1,1.872412589E1
1.184566683E1,7.932154999E0,6.241121521E0,1.645543076E1,1.930419338E1
1.185563783E1,6.810687103E0,4.660109253E0,2.184167999E1,2.334868437E1
1.186560883E1,7.190297699E0,2.864892426E0,2.747416718E1,2.854361315E1
1.187558083E1,9.706265717E0,1.913919983E0,3.240191986E1,3.387859346E1
1.188555183E1,1.285272263E1,2.694995728E0,3.456567032E1,3.697622270E1
1.189552283E1,1.603959549E1,4.070784760E0,3.459740433E1,3.835127505E1
1.190549383E1,1.986324417E1,4.363575897E0,3.287957657E1,3.866077882E1
1.191546483E1,1.971131012E1,5.254223785E0,3.021092606E1,3.645329433E1
1.192543683E1,1.634990021E1,5.350773010E0,2.465582794E1,3.006426217E1
1.193540783E1,1.313698151E1,4.748425598E0,1.797596878E1,2.276539660E1
1.194537883E1,1.042072998E1,4.386927338E0,1.194860275E1,1.645010190E1
1.195534983E1,7.484436035E0,4.223018188E0,7.397766266E0,1.133920681E1
1.196532083E1,5.133125610E0,3.940555573E0,4.960235138E0,8.153581383E0
1.197529283E1,3.278781738E0,3.549119568E0,4.039649506E0,6.298049501E0
1.198526383E1,1.774709473E0,3.166215820E0,4.164340210E0,5.524151131E0
1.199523483E1,4.460723877E-1,2.491119690E0,4.333189087E0,5.018085845E0
1.200520583E1,-6.996450806E-1,1.684746552E0,4.033961334E0,4.427269839E0
1.201517683E1,-1.489103394E0,1.027463379E0,3.279979248E0,3.745847538E0
1.202514883E1,-1.988614655E0,3.960763550E-1,2.249671783E0,3.028611539E0
1.203511983E1,-2.480491791E0,-9.624984741E-2,8.843609619E-1,2.635184598E0
1.204509083E1,-2.865191803E0,-1.941462708E-1,-1.227447510E0,3.123082489E0
1.205506183E1,-3.093916168E0,-1.101708984E-1,-3.172951813E0,4.433066443E0
1.206503283E1,-3.208577728E0,-1.576222229E-1,-4.632566528E0,5.637418597E0
1.207500483E1,-3.275189209E0,-3.939807129E-1,-5.928571472E0,6.784544558E0
1.208497583E1,-3.422482910E0,-8.229885864E-1,-6.496041412E0,7.388454068E0
1.209494683E1,-3.622616730E0,-1.531465302E0,-5.902525635E0,7.092851811E0
1.210491783E1,-3.613336029E0,-2.201022949E0,-4.346062317E0,6.065390090E0
1.211488883E1,-3.339106293E0,-2.578388214E0,-2.323767700E0,4.816390032E0
1.212486083E1,-2.716550903E0,-2.756817169E0,-3.631448364E-1,3.887359501E0
1.213483183E1,-2.373464355E0,-2.812501373E0,1.202299805E0,3.871565813E0
1.214480283E1,-2.152074738E0,-2.780318298E0,2.236648865E0,4.167036556E0
1.215477383E1,-1.735640717E0,-2.466121674E0,2.651436310E0,4.015509844E0
1.216474483E1,-1.318458252E0,-2.125729523E0,2.531835022E0,3.559107577E0
1.217471683E1,-1.053958282E0,-2.048639832E0,2.711012421E0,3.557715779E0
1.218468783E1,-1.025966492E0,-2.231409760E0,3.261717224E0,4.082964120E0
1.219465883E1,-8.812174988E-1,-2.454895020E0,3.947890320E0,4.731690165E0
1.220462983E1,-8.351133728E-1,-2.561024323E0,5.130131836E0,5.794351783E0
1.221460083E1,-8.467890930E-1,-2.565065918E0,5.751489716E0,6.354230786E0
1.222457283E1,-7.723937988E-1,-2.537972260E0,6.143823853E0,6.692119761E0
1.223454383E1,-6.978488159E-1,-2.675985260E0,6.787485352E0,7.329246038E0
1.224451483E1,-1.329235840E-1,-2.477498016E0,7.727829895E0,8.116342772E0
1.225448583E1,1.177301788E0,-1.804796906E0,8.498277740E0,8.767214833E0
1.226445683E1,2.214345245E0,-1.076860657E0,8.962761841E0,9.294840158E0
1.227442883E1,2.867586823E0,-5.382806396E-1,8.599018250E0,9.080523943E0
1.228439983E1,3.525169373E0,3.682342529E-2,7.919730835E0,8.668927936E0
1.229437083E1,4.080065460E0,9.554631042E-1,7.733218689E0,8.795596352E0
1.230434183E1,4.422403564E0,1.533710632E0,8.064180450E0,9.324211920E0
1.231431283E1,4.168830872E0,1.215622101E0,8.492589569E0,9.538394284E0
1.232428483E1,3.713926849E0,7.728428650E-1,8.903335419E0,9.677805553E0
1.233425583E1,3.508853302E0,6.563850403E-1,8.975784760E0,9.659586164E0
1.234422683E1,3.783083038E0,1.028960266E0,9.180558929E0,9.982641873E0
1.235419783E1,4.819827118E0,2.132615204E0,1.093146790E1,1.213572295E1
1.236416883E1,6.202202454E0,3.694467316E0,1.313428711E1,1.498752488E1
1.237414083E1,7.270381165E0,4.814588013E0,1.529818726E1,1.760889643E1
1.238411183E1,8.065527649E0,4.980143738E0,1.751447845E1,1.991510792E1
1.239408283E1,9.468260651E0,4.265080719E0,2.040107574E1,2.289198036E1
1.240405383E1,1.104448288E1,3.389701080E0,2.353091721E1,2.621401801E1
1.241402483E1,1.186492676E1,2.550396423E0,2.542283295E1,2.817093261E1
1.242399683E1,1.279254776E1,1.475930786E0,2.623519363E1,2.922521232E1
1.243396783E1,1.474299179E1,1.294358368E0,2.951038284E1,3.301354065E1
1.244393883E1,1.628239059E1,1.220112762E0,3.344330429E1,3.721638780E1
1.245390983E1,1.637699387E1,5.566923523E-1,3.399311096E1,3.773655293E1
1.246388083E1,1.549577637E1,7.008425903E-1,3.000645126E1,3.377865277E1
1.247385283E1,1.387943756E1,1.751956787E0,2.473186981E1,2.841431900E1
1.248382383E1,1.168859344E1,2.969075775E0,1.972942245E1,2.312333752E1
1.249379483E1,9.809101868E0,3.736978912E0,1.503847733E1,1.833955537E1
1.250376583E1,8.615933075E0,4.438719635E0,1.169024002E1,1.518546168E1
1.251373683E1,7.766299896E0,4.749623108E0,9.683812408E0,1.329099532E1
1.252370783E1,7.123237152E0,4.607269135E0,8.725954285E0,1.217003347E1
1.253367983E1,6.394702148E0,4.350702667E0,8.628207550E0,1.158735495E1
1.254365083E1,5.501509552E0,3.709885254E0,8.769813080E0,1.099724863E1
1.255362183E1,4.472698975E0,2.700384521E0,8.543932800E0,1.001478409E1
1.256359283E1,3.034639435E0,2.034718781E0,7.864795074E0,8.672030822E0
1.257356383E1,1.519789581E0,1.503024445E0,6.295159149E0,6.648147980E0
1.258353583E1,1.425036621E-1,7.000941467E-1,3.801494751E0,3.868048791E0
1.259350683E1,-8.997789001E-1,2.809657288E-1,1.348994751E0,1.645700656E0
1.260347783E1,-1.288969574E0,4.990621948E-1,-1.630110168E-1,1.391789578E0
1.261344883E1,-1.584604797E0,5.983058167E-1,-6.872209167E-1,1.827899013E0
1.262341983E1,-2.026336212E0,3.625460815E-1,-1.482816467E0,2.536971183E0
1.263339183E1,-2.214345245E0,-3.233276367E-2,-2.092947693E0,3.047097031E0
1.264336283E1,-2.924019470E0,-7.225474548E-1,-2.329006805E0,3.807392466E0
1.265333383E1,-4.121978302E0,-1.976040802E0,-2.800675964E0,5.360898081E0
1.266330442E1,-5.147495728E0,-3.364703064E0,-2.865042114E0,6.784276328E0
1.267327542E1,-6.319558411E0,-4.561314697E0,-2.428250427E0,8.163259791E0
1.268324742E1,-7.243586884E0,-5.637576599E0,-2.180964661E0,9.434427789E0
1.269321842E1,-7.525450745E0,-5.504054260E0,-2.108066254E0,9.558816116E0
1.270318942E1,-7.188501434E0,-4.260590057E0,-1.693278809E0,8.526099556E0
1.271316042E1,-6.244564362E0,-3.132984924E0,-1.634451141E0,7.175068581E0
1.272313142E1,-5.200335846E0,-2.372416534E0,-1.740131378E0,5.974940195E0
1.273310342E1,-4.235142975E0,-1.604812775E0,-1.752555542E0,4.856265127E0
1.274307442E1,-3.127895508E0,-7.620652771E-1,-1.568737793E0,3.581258446E0
1.275304542E1,-2.153571625E0,-4.085005188E-1,-9.057664490E-1,2.371741191E0
1.276301642E1,-1.251996460E0,-1.826202393E-1,-3.053649902E-2,1.265613592E0
1.277298742E1,-2.975811768E-1,1.323248291E-1,1.456770630E0,1.492730748E0
1.278295942E1,6.310876465E-1,4.278103638E-1,3.611689453E0,3.691286230E0
1.279293042E1,1.025816803E0,5.011578369E-1,5.734724579E0,5.847266480E0
1.280290142E1,5.763015747E-1,1.228944397E-1,7.490573273E0,7.513715093E0
1.281287242E1,7.813751221E-2,-5.372328186E-1,8.244106293E0,8.261961821E0
1.282284342E1,-1.237925720E-1,-1.112636261E0,8.229885864E0,8.305679105E0
1.283281542E1,-9.325607300E-2,-1.438807983E0,8.169561310E0,8.295818049E0
1.284278642E1,3.222798157E-1,-1.423839111E0,8.262817383E0,8.390788592E0
1.285275742E1,9.398954773E-1,-9.794132996E-1,8.337362366E0,8.447145384E0
1.286272842E1,1.860032043E0,-4.805007935E-2,8.555907898E0,8.755888760E0
1.287269942E1,2.755020905E0,1.094374237E0,9.418264618E0,9.873778586E0
1.288267042E1,3.561094666E0,1.561103668E0,1.071591614E1,1.139953063E1
1.289264242E1,4.571643219E0,1.834285583E0,1.301034485E1,1.391163536E1
1.290261342E1,5.575605469E0,2.047442322E0,1.574695404E1,1.682991260E1
1.291258442E1,6.769373016E0,2.084265747E0,1.851784195E1,1.982622115E1
1.292255542E1,8.209228821E0,2.962788849E0,2.092932724E1,2.267611727E1
1.293252642E1,9.361981659E0,4.913232880E0,2.292063629E1,2.524167439E1
1.294249842E1,1.090557175E1,6.357130280E0,2.540861252E1,2.837150314E1
1.295246942E1,1.228929428E1,6.503825226E0,2.886163193E1,3.203623408E1
1.296244042E1,1.380683853E1,5.789360962E0,3.170047852E1,3.505803515E1
1.297241142E1,1.469000198E1,5.171894989E0,3.347907990E1,3.692415804E1
1.298238242E1,1.493519211E1,5.014422455E0,3.392021255E1,3.740033711E1
1.299235442E1,1.488579483E1,4.659360809E0,3.317521179E1,3.665912176E1
1.300232542E1,1.423539734E1,3.725901947E0,3.159599579E1,3.485449516E1
1.301229642E1,1.273267227E1,3.005899200E0,2.896431839E1,3.178188341E1
1.302226742E1,1.115495316E1,2.696642303E0,2.562506241E1,2.807754767E1
1.303223842E1,9.569150848E0,2.221081238E0,2.184976318E1,2.395650227E1
1.304221042E1,7.895481262E0,1.427880707E0,1.810380295E1,1.980215011E1
1.305218142E1,6.061794434E0,4.757107544E-1,1.515433640E1,1.632867306E1
1.306215242E1,4.075874176E0,-3.418890381E-1,1.273237289E1,1.337321793E1
1.307212342E1,2.527194672E0,-8.128097534E-1,1.043510010E1,1.076748284E1
1.308209442E1,1.356928253E0,-9.813592529E-1,8.328830109E0,8.495512418E0
1.309206642E1,5.550457764E-1,-9.154962158E-1,6.486012268E0,6.573778539E0
1.310203742E1,-1.332229614E-2,-5.721102905E-1,4.543950806E0,4.579844604E0
1.311200842E1,-4.685256958E-1,-1.715432739E-1,2.609373779E0,2.656647312E0
1.312197942E1,-6.873706055E-1,1.140628052E-1,1.009201355E0,1.226367012E0
1.313195042E1,-1.042282562E0,2.921923828E-1,-3.359014893E-1,1.133383933E0
1.314192242E1,-1.626367950E0,4.405339050E-1,-1.493294678E0,2.251459932E0
1.315189342E1,-1.869761810E0,4.131408691E-1,-2.634371796E0,3.256778986E0
1.316186442E1,-1.762434998E0,4.403842163E-1,-3.878584442E0,4.282935051E0
1.317183542E1,-1.406475220E0,8.402027893E-1,-3.853287048E0,4.187115278E0
1.318180642E1,-1.307530975E0,1.137933655E0,-3.294199677E0,3.722402687E0
1.319177842E1,-1.270258484E0,8.428971863E-1,-2.847229156E0,3.229666570E0
1.320174942E1,-1.451381836E0,1.836680603E-1,-2.542762299E0,2.933578582E0
1.321172042E1,-1.983076172E0,-5.575904846E-1,-2.241887970E0,3.044595198E0
1.322169142E1,-2.466570740E0,-1.111887817E0,-1.834584961E0,3.268939845E0
1.323166242E1,-2.918480988E0,-1.581910400E0,-1.367705841E0,3.590346927E0
1.324163342E1,-3.344046021E0,-2.023043060E0,-1.273851013E0,4.110722980E0
1.325160542E1,-3.647914124E0,-2.356998596E0,-1.399739227E0,4.563111848E0
1.326157642E1,-3.908222809E0,-2.612966309E0,-1.431024170E0,4.914227165E0
1.327154742E1,-4.176914062E0,-2.748284912E0,-1.291364594E0,5.164039461E0
1.328151842E1,-4.581971741E0,-3.243006134E0,-9.461824036E-1,5.692698390E0
1.329148942E1,-4.985831909E0,-4.015399933E0,-3.408412170E-1,6.410782260E0
1.330146142E1,-5.191204834E0,-4.525988159E0,8.186476135E-1,6.935658610E0
1.331143242E1,-5.132377167E0,-4.735702057E0,1.864073639E0,7.227927773E0
1.332140342E1,-4.644541626E0,-4.530029755E0,2.461780701E0,6.939257937E0
1.333137442E1,-3.708837433E0,-4.069437561E0,2.997217255E0,6.268900098E0
1.334134542E1,-2.807861023E0,-3.558699646E0,2.832409973E0,5.345182219E0
1.335131742E1,-1.702409821E0,-2.999312897E0,2.597099304E0,4.317291031E0
1.336128842E1,-3.763174438E-1,-2.227817230E0,2.921474762E0,3.693209880E0
1.337125942E1,9.719288635E-1,-1.462309113E0,3.754941559E0,4.145187543E0
1.338123042E1,2.230511627E0,-8.675958252E-1,5.110073547E0,5.642761407E0
1.339120142E1,2.627935181E0,-5.339396667E-1,6.843019867E0,7.349697666E0
1.340117242E1,2.929108887E0,-2.505789185E-1,8.226443024E0,8.735950634E0
1.341114442E1,3.449576569E0,-7.783813477E-2,9.698631592E0,1.029412901E1
1.342111542E1,3.950285339E0,2.791694641E-1,1.151420609E1,1.217619118E1
1.343108642E1,4.808600464E0,8.858578491E-1,1.342782669E1,1.429034332E1
1.344105742E1,6.192173309E0,1.618733826E0,1.508532990E1,1.638689988E1
1.345102842E1,7.297923889E0,2.335892487E0,1.619512207E1,1.791641889E1
1.346100042E1,7.769143982E0,2.431393890E0,1.654404648E1,1.843845840E1
1.347097142E1,8.110733643E0,2.108365631E0,1.727003677E1,1.919592082E1
1.348094242E1,8.407266998E0,1.899400177E0,1.925625641E1,2.109723371E1
1.349091342E1,8.936716003E0,2.234852600E0,2.103366028E1,2.296245465E1
1.350088442E1,9.510173492E0,2.304607544E0,2.216306168E1,2.422717315E1
1.351085642E1,1.091919342E1,2.361938324E0,2.433264999E1,2.677471556E1
1.352082742E1,1.380893417E1,3.860621796E0,2.962025436E1,3.290821375E1
1.353079842E1,1.467278778E1,5.090913391E0,3.419758575E1,3.755905978E1
1.354076942E1,1.486394028E1,4.777914276E0,3.507371384E1,3.839180365E1
1.355074042E1,1.441921509E1,4.367018738E0,3.323523697E1,3.649062335E1
1.356071242E1,1.354353607E1,4.422104187E0,3.092793503E1,3.405171860E1
1.357068342E1,1.290511368E1,4.959935760E0,2.880669617E1,3.195260030E1
1.358065442E1,1.235964798E1,5.611680450E0,2.706581635E1,3.027887498E1
1.359062542E1,1.113145203E1,5.754333801E0,2.516432053E1,2.811164544E1
1.360059642E1,9.386081543E0,5.372328186E0,2.218207214E1,2.467802183E1
1.361056842E1,7.379653931E0,4.657115479E0,1.851694382E1,2.047010564E1
1.362053942E1,5.643863525E0,3.707939301E0,1.467054245E1,1.615013390E1
1.363051042E1,3.841162262E0,2.729873199E0,1.104343506E1,1.200683943E1
1.364048142E1,2.278711395E0,1.965712280E0,7.886799316E0,8.441454487E0
1.365045242E1,1.257085876E0,1.368903351E0,5.370531921E0,5.683025110E0
1.366042354E1,3.829037476E-1,8.041278076E-1,3.256029053E0,3.375642458E0
1.367039554E1,-5.251080322E-1,3.785627747E-1,1.003213806E0,1.193937252E0
1.368036654E1,-1.333726501E0,1.681004333E-1,-1.268312531E0,1.848161468E0
1.369033754E1,-2.291584625E0,-1.616638184E-1,-2.835254059E0,3.649131522E0
1.370030854E1,-3.306773529E0,-6.613247681E-1,-3.276686096E0,4.701996745E0
1.371027954E1,-3.910318451E0,-1.114731903E0,-2.956950989E0,5.027601491E0
1.372025154E1,-4.384382629E0,-1.642534332E0,-1.986369324E0,5.085901411E0
1.373022254E1,-4.404440918E0,-2.075284424E0,-1.082099762E0,4.987669309E0
1.374019354E1,-4.056414642E0,-2.455493774E0,-4.090992737E-1,4.759339412E0
1.375016454E1,-3.801644440E0,-2.981949005E0,-3.835025024E-1,4.846812817E0
1.376013554E1,-3.778292999E0,-3.582799530E0,-1.165326691E0,5.335722702E0
1.377010754E1,-3.683240662E0,-3.924838257E0,-2.183808746E0,5.808583111E0
1.378007854E1,-3.702999573E0,-4.016896820E0,-3.173400879E0,6.318080328E0
1.379004954E1,-3.566633148E0,-4.020189972E0,-3.907923431E0,6.644897664E0
1.380002054E1,-3.378474426E0,-3.930825806E0,-4.330045624E0,6.753871191E0
1.380999154E1,-3.222947845E0,-4.128863983E0,-4.341272278E0,6.803054872E0
1.381996254E1,-3.153192902E0,-4.195475464E0,-4.344565430E0,6.813214265E0
1.382993454E1,-2.962938538E0,-4.079017639E0,-4.329746246E0,6.645606988E0
1.383990554E1,-2.530338135E0,-3.909719696E0,-3.973038025E0,6.121564369E0
1.384987654E1,-2.164947968E0,-3.974684601E0,-2.941083984E0,5.397693246E0
1.385984754E1,-1.939067688E0,-4.191882935E0,-1.376088409E0,4.819282659E0
1.386981854E1,-1.434916077E0,-3.924089813E0,2.630030823E-1,4.186482489E0
1.387979054E1,-3.861968994E-1,-3.231480103E0,2.095941467E0,3.870992422E0
1.388976154E1,9.827064514E-1,-2.093995514E0,4.246369629E0,4.835512817E0
1.389973254E1,2.281256104E0,-8.668473816E-1,6.277495880E0,6.735169509E0
1.390970354E1,4.075574799E0,5.665718079E-1,8.087232513E0,9.073843909E0
1.391967454E1,5.488486633E0,2.060764618E0,9.468859406E0,1.113685480E1
1.392964654E1,6.527026978E0,3.351380768E0,1.033885025E1,1.267776237E1
1.393961754E1,7.335196381E0,4.283342743E0,1.082908081E1,1.376303463E1
1.394958854E1,7.407645721E0,4.380041656E0,1.131377289E1,1.421476124E1
1.395955954E1,6.884184265E0,3.954027557E0,1.152752838E1,1.399679383E1
1.396953054E1,6.354735260E0,3.786974945E0,1.177705948E1,1.390765866E1
1.397950154E1,6.484515381E0,3.875890045E0,1.229842529E1,1.443338935E1
1.398947354E1,7.173981628E0,3.836521912E0,1.339564362E1,1.567252949E1
1.399944454E1,6.117927704E0,4.495002594E0,1.413974625E1,1.604887883E1
1.400941554E1,5.519023132E0,5.052144012E0,1.437969727E1,1.620985715E1
1.401938654E1,6.665638733E0,5.064418488E0,1.466156113E1,1.688314097E1
1.402935754E1,8.438701630E0,5.962251434E0,1.509685593E1,1.829412983E1
1.403932954E1,1.053778656E1,6.928043060E0,1.561642548E1,2.007275444E1
1.404930054E1,1.291903473E1,7.351811829E0,1.600217331E1,2.184079088E1
1.405927154E1,1.551104462E1,8.053552551E0,1.837399109E1,2.535854417E1
1.406924254E1,1.767823792E1,8.516240387E0,2.121403519E1,2.889778080E1
1.407921354E1,1.890299103E1,8.425229645E0,2.324246704E1,3.112105137E1
1.408918554E1,1.909489197E1,8.033045197E0,2.449132004E1,3.207755402E1
1.409915654E1,1.934038147E1,7.592062225E0,2.534559357E1,3.277329519E1
1.410912754E1,1.981968475E1,7.658524017E0,2.525128967E1,3.300152306E1
1.411909854E1,1.949276459E1,8.037984924E0,2.359558273E1,3.164377660E1
1.412906954E1,1.779200134E1,7.837851105E0,2.092289062E1,2.856141757E1
1.413904054E1,1.523486893E1,7.186106415E0,1.848326385E1,2.500744688E1
1.414901254E1,1.233689529E1,5.638774109E0,1.562989746E1,2.069513116E1
1.415898354E1,9.339977417E0,3.922443237E0,1.331331482E1,1.672916885E1
1.416895454E1,6.738387451E0,2.475252686E0,1.131077911E1,1.339650945E1
1.417892554E1,4.556225281E0,1.323248291E0,9.237141266E0,1.038436101E1
1.418889654E1,2.460732880E0,2.709365845E-1,7.338489532E0,7.744807393E0
1.419886854E1,8.140072632E-1,-6.828799438E-1,6.152805176E0,6.243872546E0
1.420883954E1,-5.703140259E-1,-1.401086426E0,5.730832672E0,5.927119400E0
1.421881054E1,-2.009421387E0,-1.922003174E0,5.173691254E0,5.873580824E0
1.422878154E1,-3.203787689E0,-2.142494659E0,4.249213715E0,5.736754842E0
1.423875254E1,-3.826193390E0,-1.754351807E0,3.547922058E0,5.505021076E0
1.424872454E1,-4.190386047E0,-1.143621826E0,2.362686768E0,4.944643048E0
1.425869554E1,-4.413871307E0,-9.277706909E-1,1.195414124E0,4.666051146E0
1.426866654E1,-4.445605316E0,-1.026415558E0,1.132544861E0,4.701020462E0
1.427863754E1,-4.355492706E0,-1.296753387E0,1.504970398E0,4.787151759E0
1.428860854E1,-4.370760956E0,-1.881437531E0,1.558109894E0,5.007101452E0
1.429857954E1,-4.560416565E0,-2.579286346E0,1.705253906E0,5.509810177E0
1.430855154E1,-4.286336517E0,-2.799328766E0,1.475182343E0,5.327765500E0
1.431852254E1,-3.720812531E0,-2.705174561E0,1.059796143E0,4.720760866E0
1.432849354E1,-3.154091034E0,-2.125879211E0,1.546284485E-1,3.806778511E0
1.433846454E1,-2.169139252E0,-1.226100311E0,-1.008153534E0,2.687910083E0
1.434843554E1,-1.457519073E0,-4.888833618E-1,-1.757794647E0,2.335211085E0
1.435840754E1,-8.812174988E-1,-2.005828857E-1,-2.400408325E0,2.564905047E0
1.436837854E1,-6.539900208E-1,6.376739502E-2,-2.544708252E0,2.628176043E0
1.437834954E1,-5.119354248E-1,9.116043091E-2,-1.578916626E0,1.662337455E0
1.438832054E1,-8.756790161E-2,-2.203417969E-1,-3.712280273E-2,2.399932235E-1
1.439829154E1,2.559677124E-1,-5.821394348E-1,1.865570526E0,1.970979244E0
1.440826254E1,7.502398682E-1,-6.671626282E-1,3.483705597E0,3.625489004E0
1.441823454E1,1.527723083E0,-1.291813660E-1,4.579127655E0,4.828978746E0
1.442820554E1,2.451601868E0,7.235952759E-1,5.478307800E0,6.045312084E0
1.443817654E1,2.975063324E0,1.246308289E0,5.650898895E0,6.506684598E0
1.444814754E1,3.093616791E0,1.556762695E0,5.296585693E0,6.328332714E0
1.445811854E1,3.066972198E0,1.716181183E0,4.837789764E0,5.979615884E0
1.446809054E1,3.044668579E0,1.767674103E0,4.687053223E0,5.862008734E0
1.447806154E1,3.106490021E0,1.716630249E0,5.182672577E0,6.281496215E0
1.448803254E1,3.376229095E0,1.383123779E0,5.902675323E0,6.939274477E0
1.449800354E1,3.526666260E0,1.054856415E0,7.341034241E0,8.212239688E0
1.450797454E1,3.575015717E0,4.543052673E-1,8.995693359E0,9.690698100E0
1.451794654E1,4.265080719E0,-3.333567810E-1,1.072893906E1,1.155041876E1
1.452791754E1,5.553002472E0,-4.782554626E-1,1.244676682E1,1.363768928E1
1.453788854E1,7.277416534E0,9.430389404E-1,1.442669952E1,1.618578923E1
1.454785954E1,1.010847931E1,2.730771332E0,1.764904861E1,2.052138843E1
1.455783054E1,1.287981628E1,3.633544006E0,2.009211823E1,2.414095119E1
1.456780154E1,1.315838699E1,4.397854614E0,1.985680756E1,2.422348199E1
1.457777354E1,1.105645798E1,5.859115906E0,1.782822601E1,2.178118787E1
1.458774454E1,1.137933655E1,7.910599823E0,1.646710648E1,2.152283637E1
1.459771554E1,1.356254654E1,1.139101227E1,1.826396988E1,2.544150988E1
1.460768654E1,1.566462524E1,1.397149612E1,2.220003479E1,3.055200047E1
1.461765754E1,1.842653183E1,1.366373611E1,2.761951492E1,3.590365392E1
1.462762954E1,1.973960129E1,1.115480347E1,3.240895523E1,3.955277334E1
1.463760054E1,1.880030457E1,7.188800812E0,3.438394821E1,3.984201556E1
1.464757154E1,1.755175095E1,3.256478119E0,3.315739883E1,3.765742567E1
1.465754308E1,1.612357086E1,9.928852844E-1,3.051539291E1,3.452744652E1
1.466751408E1,1.486408997E1,3.291654968E-1,2.732717285E1,3.110986815E1
1.467748508E1,1.395428192E1,3.643423462E-1,2.316268295E1,2.704375364E1
1.468745708E1,1.180056061E1,7.005432129E-1,1.723291397E1,2.089778255E1
1.469742808E1,9.096733246E0,1.029259644E0,1.011207184E1,1.364052521E1
1.470739908E1,7.048991547E0,1.322350159E0,4.228107605E0,8.325490117E0
1.471737008E1,6.226452026E0,1.697470093E0,5.857319641E-1,6.480215389E0
1.472734108E1,5.023254089E0,1.848206635E0,-7.866142273E-1,5.409964081E0
1.473731308E1,3.259322205E0,1.048120422E0,-4.176315308E-1,3.449080131E0
1.474728408E1,1.565594330E0,3.757186890E-2,8.414002991E-1,1.777765933E0
1.475725508E1,-1.145118713E-1,-1.191522217E0,1.697021027E0,2.076708580E0
1.476722608E1,-1.953886871E0,-2.626438293E0,1.551224213E0,3.622450631E0
1.477719708E1,-3.374582520E0,-3.323838043E0,2.444416809E-1,4.742937724E0
1.478716808E1,-3.771856384E0,-3.212619324E0,-2.060914307E0,5.366115101E0
1.479714008E1,-3.509452057E0,-2.852617950E0,-4.512815552E0,6.388989522E0
1.480711108E1,-3.102747803E0,-2.444416809E0,-6.319857788E0,7.452705544E0
1.481708208E1,-2.824925537E0,-1.967209167E0,-7.392078094E0,8.154320006E0
1.482705308E1,-2.364333344E0,-1.560953979E0,-7.508236542E0,8.024977598E0
1.483702408E1,-1.678459625E0,-1.265019379E0,-6.253545685E0,6.597297505E0
1.484699608E1,-1.082249451E0,-1.174757080E0,-4.429888000E0,4.709057843E0
1.485696708E1,-4.694238281E-1,-1.281485138E0,-2.414029999E0,2.773103627E0
1.486693808E1,1.323248291E-1,-1.332528992E0,-1.737886047E-1,1.350313243E0
1.487690908E1,4.520599365E-1,-1.287472687E0,2.007325745E0,2.427200188E0
1.488688008E1,5.183720398E-1,-1.292412415E0,2.882256317E0,3.201006232E0
1.489685108E1,6.554869080E-1,-1.013242950E0,2.945275269E0,3.182918593E0
1.490682308E1,7.363188171E-1,-6.053411865E-1,2.593955841E0,2.763550300E0
1.491679408E1,8.134085083E-1,-1.396595764E-1,1.816772003E0,1.995444489E0
1.492676508E1,8.885522461E-1,3.487747192E-1,1.080752563E0,1.441941400E0
1.493673608E1,9.122030640E-1,6.222560120E-1,9.924362183E-1,1.484670543E0
1.494670708E1,7.990383911E-1,6.662644958E-1,1.256487122E0,1.631297219E0
1.495667908E1,6.096821594E-1,5.327421570E-1,1.922601929E0,2.086126726E0
1.496665008E1,5.292993164E-1,4.454736328E-1,2.641407166E0,2.730501115E0
1.497662108E1,3.236270142E-1,2.371069336E-1,3.479214935E0,3.502269365E0
1.498659208E1,8.711883545E-2,-4.326004028E-2,4.121828613E0,4.122976139E0
1.499656308E1,3.818559265E-1,-1.719923401E-1,4.266427917E0,4.286933926E0
1.500653508E1,1.107846222E0,1.752854919E-1,4.237687683E0,4.383610972E0
1.501650608E1,1.919608154E0,1.042282562E0,3.960164795E0,4.522626848E0
1.502647708E1,2.533331909E0,1.675914917E0,3.497926025E0,4.632704162E0
1.503644808E1,3.122207336E0,1.871258698E0,4.026776276E0,5.428141021E0
1.504641908E1,3.395239563E0,2.005828857E0,5.003944244E0,6.371064204E0
1.505639008E1,3.575464783E0,2.118843842E0,5.439837799E0,6.845822297E0
1.506636208E1,4.041894836E0,2.357597351E0,5.889502716E0,7.522062309E0
1.507633308E1,4.690645752E0,2.447111206E0,7.155869293E0,8.899268294E0
1.508630408E1,5.949677582E0,2.221530304E0,9.076375580E0,1.107765561E1
1.509627508E1,7.381300507E0,1.927242279E0,1.161449753E1,1.389584157E1
1.510624608E1,9.058712311E0,1.776505737E0,1.467353622E1,1.733576957E1
1.511621808E1,1.149789001E1,2.919379120E0,1.675495789E1,2.052931716E1
1.512618908E1,1.374396927E1,5.347330170E0,1.726434860E1,2.270569012E1
1.513616008E1,1.561777267E1,7.106921082E0,1.645617920E1,2.377454488E1
1.514613108E1,1.724234436E1,8.134085083E0,1.476095444E1,2.411115002E1
1.515610208E1,1.788450897E1,9.416019287E0,1.378453491E1,2.446488265E1
1.516607308E1,1.812580719E1,1.065589096E1,1.500389923E1,2.583040632E1
1.517604508E1,1.890583511E1,1.024035507E1,1.966939728E1,2.914070457E1
1.518601608E1,2.105117386E1,9.104966125E0,2.582384903E1,3.453872475E1
1.519598708E1,2.374467270E1,8.547225952E0,3.183684494E1,4.062572152E1
1.520595808E1,2.457619354E1,7.515271912E0,3.556663879E1,4.387999995E1
1.521592908E1,2.329366058E1,5.671406250E0,3.395464096E1,4.156533550E1
1.522590008E1,2.057965439E1,4.484674072E0,2.911894684E1,3.593810709E1
1.523587208E1,1.765728149E1,4.411027222E0,2.310415466E1,2.941154048E1
1.524584308E1,1.536584656E1,4.890929260E0,1.705313782E1,2.346997952E1
1.525581408E1,1.328756836E1,5.356461182E0,1.188273972E1,1.861318491E1
1.526578508E1,1.129356491E1,5.484594727E0,7.555089111E0,1.465280721E1
1.527575608E1,9.383087769E0,5.288502502E0,4.915478210E0,1.183944766E1
1.528572808E1,7.708969116E0,4.908742218E0,3.782484283E0,9.890962661E0
1.529569908E1,6.055357819E0,4.299958191E0,3.681294708E0,8.289084961E0
1.530567008E1,4.132755890E0,3.094215546E0,3.843407593E0,6.436274001E0
1.531564108E1,1.926493835E0,1.372944946E0,3.484753418E0,4.211871639E0
1.532561208E1,-1.103205872E-1,9.774673462E-2,2.601440277E0,2.605612514E0
1.533558408E1,-1.678309937E0,-4.132905579E-1,1.138831787E0,2.069896415E0
1.534555508E1,-2.536175995E0,-6.643185425E-1,-8.788224792E-1,2.765110622E0
1.535552608E1,-3.377426605E0,-8.875044250E-1,-2.738555145E0,4.437832676E0
1.536549708E1,-3.952081604E0,-1.064137115E0,-4.505181427E0,6.086706539E0
1.537546808E1,-3.892505493E0,-1.275647278E0,-5.609734497E0,6.946077751E0
1.538543908E1,-3.331771545E0,-1.182840271E0,-5.457800446E0,6.502876167E0
1.539541108E1,-2.547702026E0,-8.945397949E-1,-4.881798248E0,5.578793884E0
1.540538208E1,-2.534679108E0,-8.683442688E-1,-4.348607025E0,5.107739520E0
1.541535308E1,-2.416724396E0,-1.044078827E0,-3.610941010E0,4.468730511E0
1.542532408E1,-2.013013916E0,-1.288071442E0,-2.179318085E0,3.234312969E0
1.543529508E1,-1.837728424E0,-1.404080200E0,-7.429051208E-1,2.429114034E0
1.544526608E1,-1.558858337E0,-1.393601990E0,5.514532471E-1,2.162467689E0
1.545523808E1,-1.137334900E0,-1.302740936E0,1.359323273E0,2.199641876E0
1.546520908E1,-7.902067566E-1,-1.096020813E0,1.748663635E0,2.209867157E0
1.547518008E1,-3.622467041E-1,-8.590635681E-1,1.657802582E0,1.901978520E0
1.548515108E1,-2.604583740E-2,-5.471122742E-1,1.299597473E0,1.410306285E0
1.549512208E1,2.097138977E-1,-3.314108276E-1,9.809101868E-1,1.056407994E0
1.550509308E1,6.322851562E-1,-3.026705933E-1,6.764433289E-1,9.741506988E-1
1.551506508E1,1.051114197E0,-1.534309387E-1,8.186476135E-1,1.341106268E0
1.552503608E1,1.321302338E0,8.442443848E-2,1.230291595E0,1.807369570E0
1.553500708E1,1.471589813E0,2.086660767E-1,1.426234131E0,2.059917937E0
1.554497808E1,1.702709198E0,2.776725769E-1,1.592238922E0,2.347668089E0
1.555494908E1,2.202220459E0,3.034190369E-1,2.255659332E0,3.166991804E0
1.556492108E1,2.772534485E0,2.474354553E-1,3.193608856E0,4.236426478E0
1.557489208E1,3.099155273E0,4.700225830E-1,4.224365387E0,5.260318199E0
1.558486308E1,3.754642181E0,7.220983887E-1,5.651198273E0,6.823108229E0
1.559483408E1,5.048252106E0,1.018182678E0,7.227570190E0,8.874644565E0
1.560480508E1,5.882018280E0,1.415606232E0,8.699758759E0,1.059659769E1
1.561477608E1,6.868466949E0,1.857637024E0,1.002884491E1,1.229651917E1
1.562474808E1,8.298443298E0,2.056573334E0,1.155626862E1,1.437501302E1
1.563471908E1,1.034393967E1,2.224224701E0,1.343246704E1,1.709898927E1
1.564469008E1,1.155462204E1,2.620899811E0,1.497680557E1,1.909667802E1
1.565466108E1,1.139565262E1,2.594704285E0,1.474224335E1,1.881295107E1
1.566463158E1,1.104328537E1,1.885479126E0,1.372181534E1,1.771432752E1
1.567460358E1,1.155297546E1,1.628164215E0,1.336001770E1,1.773731191E1
1.568457458E1,1.400607422E1,3.363505554E0,1.372705444E1,1.989762067E1
1.569454558E1,1.786804321E1,6.594237213E0,1.647189651E1,2.518083214E1
1.570451658E1,2.327539856E1,1.038076309E1,2.135414383E1,3.324911847E1
1.571448758E1,2.907523773E1,1.338336914E1,2.583881790E1,4.113548990E1
1.572445858E1,3.193324448E1,1.430649948E1,2.781815186E1,4.470187471E1
1.573443058E1,3.097957764E1,1.328307770E1,2.674233902E1,4.302705056E1
1.574440158E1,2.820105560E1,1.168065994E1,2.517988815E1,3.956973744E1
1.575437258E1,2.464400253E1,1.020502853E1,2.422143127E1,3.602980990E1
1.576434358E1,2.079101486E1,9.038204956E0,2.256033554E1,3.198318601E1
1.577431458E1,1.692051361E1,8.299491119E0,1.898546951E1,2.675132495E1
1.578428658E1,1.386521713E1,7.413932648E0,1.419977142E1,2.118594232E1
1.579425758E1,1.128233826E1,6.178401947E0,9.974058838E0,1.627715137E1
1.580422858E1,8.913663940E0,4.726720734E0,7.567962341E0,1.261226973E1
1.581419958E1,6.962770844E0,3.306025085E0,6.674620056E0,1.019610379E1
1.582417058E1,4.657714233E0,1.803150330E0,6.090534668E0,7.876564323E0
1.583414158E1,2.272574158E0,3.629951477E-1,5.482349396E0,5.945797985E0
1.584411358E1,1.532812500E-1,-5.891748047E-1,4.919519806E0,4.957045210E0
1.585408458E1,-1.180145874E0,-8.928932190E-1,3.741619263E0,4.023644777E0
1.586405558E1,-2.114951935E0,-1.043480072E0,2.255659332E0,3.263414067E0
1.587402658E1,-2.949466553E0,-1.225501556E0,6.824308777E-1,3.266024941E0
1.588399758E1,-3.483406219E0,-1.413959656E0,-1.063688049E0,3.907023556E0
1.589396858E1,-4.262685699E0,-1.555415497E0,-2.922821960E0,5.397471163E0
1.590394058E1,-4.885839844E0,-1.595083008E0,-4.625082092E0,6.914268229E0
1.591391158E1,-5.049150238E0,-1.600920868E0,-5.436095581E0,7.589993473E0
1.592388258E1,-4.913083191E0,-1.487606506E0,-5.191504211E0,7.300895530E0
1.593385358E1,-4.581971741E0,-1.526974640E0,-4.299958191E0,6.466510421E0
1.594382458E1,-4.176015930E0,-1.827100525E0,-3.053799591E0,5.486628958E0
1.595379558E1,-3.773353271E0,-2.271376648E0,-1.730102234E0,4.731870722E0
1.596376758E1,-3.717968445E0,-2.603086853E0,-7.047344971E-1,4.593038344E0
1.597373858E1,-3.627406769E0,-2.754571838E0,7.140151978E-2,4.555309436E0
1.598370958E1,-3.333567810E0,-2.692151642E0,5.649252319E-1,4.321978173E0
1.599368058E1,-2.974614258E0,-2.416874084E0,5.674699402E-1,3.874484799E0
1.600365158E1,-2.682272186E0,-2.221230927E0,3.623963928E-1,3.501397158E0
1.601362358E1,-2.378853149E0,-2.212698669E0,1.010398865E-1,3.250413322E0
1.602359458E1,-2.060315552E0,-1.950444031E0,2.186952209E-1,2.845515716E0
1.603356558E1,-1.591191101E0,-1.543141022E0,7.696994019E-1,2.346403738E0
1.604353658E1,-7.255412292E-1,-1.357377319E0,1.272054749E0,1.996748994E0
1.605350758E1,2.336640930E-1,-1.014889526E0,1.839524689E0,2.113871032E0
1.606347858E1,9.630972290E-1,-6.026467896E-1,2.562221832E0,2.802805763E0
1.607345058E1,1.563348999E0,-2.177970886E-1,2.542163544E0,2.992338742E0
1.608342158E1,2.239942017E0,1.797761536E-1,2.433489532E0,3.312330148E0
1.609339258E1,2.907553711E0,4.090992737E-1,2.178869019E0,3.656323426E0
1.610336358E1,3.588637390E0,8.146060181E-1,1.946552124E0,4.163047736E0
1.611333458E1,4.008514252E0,1.232836304E0,2.362686768E0,4.813560077E0
1.612330558E1,4.258494415E0,1.358275452E0,3.021017761E0,5.395019481E0
1.613327758E1,4.494254150E0,1.096918945E0,4.268972626E0,6.294893075E0
1.614324858E1,5.303471375E0,8.428971863E-1,6.771768036E0,8.642576388E0
1.615321958E1,6.720125427E0,1.108594666E0,9.617200928E0,1.178471983E1
1.616319058E1,8.290060730E0,1.328487396E0,1.245410156E1,1.501980797E1
1.617316158E1,1.013512390E1,2.224524078E0,1.417372559E1,1.756598249E1
1.618313258E1,1.183723434E1,3.905678101E0,1.431548080E1,1.898176570E1
1.619310458E1,1.310135559E1,6.189179535E0,1.411804138E1,2.023043633E1
1.620307558E1,1.451052521E1,8.010292511E0,1.557017166E1,2.274094047E1
1.621304658E1,1.659434189E1,9.509574738E0,1.753738083E1,2.594925665E1
1.622301758E1,1.966790039E1,1.152034332E1,2.090163483E1,3.092608857E1
1.623298858E1,2.250390289E1,1.332918182E1,2.505624527E1,3.622027278E1
1.624296058E1,2.420062454E1,1.403855667E1,2.840089005E1,3.986680144E1
1.625293158E1,2.568493790E1,1.356030121E1,3.111998566E1,4.256819600E1
1.626290258E1,2.730022888E1,1.283940033E1,3.336995682E1,4.498562788E1
1.627287358E1,2.807456863E1,1.256726624E1,3.532683746E1,4.684125350E1
1.628284458E1,2.672871735E1,1.236578522E1,3.634097855E1,4.677610177E1
1.629281558E1,2.405722275E1,1.143621826E1,3.507775543E1,4.404527194E1
1.630278758E1,2.003823029E1,9.573940887E0,3.094320328E1,3.808769941E1
1.631275858E1,1.550086578E1,7.140151978E0,2.462993179E1,2.996484858E1
1.632272958E1,1.157542877E1,5.021607513E0,1.795561111E1,2.194563883E1
1.633270058E1,8.220754852E0,3.239263916E0,1.220666611E1,1.506905234E1
1.634267158E1,5.136867828E0,1.446741486E0,7.256909180E0,9.007952201E0
1.635264258E1,2.292033691E0,-1.579216003E-1,3.396736450E0,4.100753124E0
1.636261458E1,1.947450256E-1,-1.195863190E0,8.481362915E-1,1.478969088E0
1.637258558E1,-1.545086975E0,-1.964814148E0,-3.152444458E-1,2.519358541E0
1.638255658E1,-2.877466278E0,-2.705024872E0,-4.182302856E-1,3.971383677E0
1.639252758E1,-3.541635132E0,-3.285368042E0,-4.568499756E-1,4.852374107E0
1.640249858E1,-3.851341095E0,-3.651207275E0,-8.816665649E-1,5.379728500E0
1.641246958E1,-4.386927338E0,-4.215384064E0,-2.098785553E0,6.435797936E0
1.642244158E1,-5.109774170E0,-4.800517273E0,-4.066593475E0,8.105056486E0
1.643241258E1,-5.564229126E0,-4.693040771E0,-6.264323273E0,9.603490174E0
1.644238358E1,-5.652844849E0,-4.056863708E0,-7.995473328E0,1.059907504E1
1.645235458E1,-5.184618530E0,-3.418291626E0,-8.712482300E0,1.069917449E1
1.646232558E1,-4.500241699E0,-3.024909668E0,-8.187673645E0,9.820399868E0
1.647229758E1,-3.514242096E0,-2.761457520E0,-7.080575867E0,8.373177398E0
1.648226858E1,-2.734064484E0,-2.441423035E0,-5.610482941E0,6.701729170E0
1.649223958E1,-2.137105865E0,-2.217488708E0,-4.385131073E0,5.358530786E0
1.650221058E1,-1.771116943E0,-2.352507935E0,-3.228636017E0,4.369809989E0
1.651218158E1,-1.646126862E0,-2.604284363E0,-2.004032593E0,3.675347238E0
1.652215258E1,-1.694476318E0,-2.747686157E0,-1.033151550E0,3.389458856E0
1.653212358E1,-1.631457367E0,-2.793341217E0,-4.613406372E-1,3.267605160E0
1.654209558E1,-1.327738953E0,-2.725083160E0,-1.332229614E-1,3.034257292E0
1.655206658E1,-9.521699524E-1,-2.419568481E0,3.728746033E-1,2.626780296E0
1.656203758E1,-9.098080444E-1,-2.183209991E0,7.301815796E-1,2.475342741E0
1.657200858E1,-1.050066376E0,-2.248474274E0,8.087681580E-1,2.610054001E0
1.658197958E1,-1.030008087E0,-2.202819214E0,1.282083893E0,2.749012233E0
1.659195058E1,-1.078207855E0,-2.113754425E0,1.865869904E0,3.018602399E0
1.660192258E1,-1.219663696E0,-2.050436096E0,1.955084381E0,3.084513358E0
1.661189358E1,-1.305884399E0,-1.972897339E0,1.627864838E0,2.871863838E0
1.662186458E1,-1.143921204E0,-1.741628265E0,1.600471802E0,2.627419784E0
