"Time (s)","Acceleration x (m/s^2)","Acceleration y (m/s^2)","Acceleration z (m/s^2)","Absolute acceleration (m/s^2)"
-2.520833368E-5,-7.031627655E0,8.278983765E0,1.208287354E0,1.092910417E1
9.943791669E-3,-7.308551788E0,8.066276093E0,1.550625458E0,1.099473413E1
1.991179167E-2,-7.268584900E0,7.741152191E0,2.375859375E0,1.088128997E1
2.987979167E-2,-7.063511353E0,7.498806152E0,3.486849060E0,1.087581734E1
3.984779167E-2,-6.905739441E0,7.383396149E0,4.436025238E0,1.104002246E1
4.981679167E-2,-6.543492737E0,7.159761200E0,4.911885681E0,1.087226281E1
5.978479167E-2,-5.874533844E0,7.066056061E0,5.101092224E0,1.051001608E1
6.975279167E-2,-5.322631531E0,7.110214233E0,5.116659851E0,1.025015907E1
7.972079167E-2,-5.204078064E0,7.045249329E0,5.097649384E0,1.013429799E1
8.968979167E-2,-5.178930359E0,6.844217377E0,5.402864685E0,1.014177391E1
9.965779167E-2,-4.961582336E0,6.699468384E0,6.071823578E0,1.031344838E1
1.096257917E-1,-4.658612366E0,6.711144104E0,6.899602203E0,1.069329860E1
1.195937917E-1,-4.566853180E0,6.720275116E0,7.582781525E0,1.111381218E1
1.295627917E-1,-4.439767456E0,6.533762970E0,8.026009827E0,1.126136880E1
1.395307917E-1,-4.119882660E0,6.272705841E0,8.241561584E0,1.114646173E1
1.494987917E-1,-3.681145020E0,6.088289337E0,8.408464508E0,1.101455270E1
1.594667917E-1,-3.296744385E0,5.872587891E0,8.530311127E0,1.086839547E1
1.694357917E-1,-3.051554260E0,5.724994812E0,8.336314545E0,1.056322343E1
1.794037917E-1,-2.868484955E0,5.633834381E0,7.881410522E0,1.010370861E1
1.893717917E-1,-2.758912811E0,5.535638580E0,7.487579498E0,9.711783623E0
1.993397917E-1,-2.744542694E0,5.424120483E0,7.061715088E0,9.317801114E0
2.093087917E-1,-2.666854248E0,5.280419312E0,6.504723358E0,8.792403861E0
2.192767917E-1,-2.442021790E0,5.272635498E0,5.880521393E0,8.267084575E0
2.292447917E-1,-2.365231476E0,5.339097290E0,5.326523438E0,7.903931410E0
2.392127917E-1,-2.530338135E0,5.333409119E0,4.942571869E0,7.699148043E0
2.491817917E-1,-2.782563629E0,5.387895813E0,4.880750427E0,7.784202360E0
2.591497917E-1,-3.173550568E0,5.441334686E0,5.040468292E0,8.067581235E0
2.691177917E-1,-3.557801514E0,5.426814880E0,5.283113708E0,8.367769226E0
2.790867917E-1,-3.998634796E0,5.411995697E0,5.609584808E0,8.760491960E0
2.890547917E-1,-4.377197571E0,5.417833557E0,5.903723145E0,9.130538100E0
2.990227917E-1,-4.458029480E0,5.312303009E0,6.101312256E0,9.236915142E0
3.089907917E-1,-4.483476562E0,5.125790863E0,6.310427399E0,9.284222531E0
3.189597917E-1,-4.602628784E0,4.987029419E0,6.514153748E0,9.406851397E0
3.289277917E-1,-4.702471161E0,4.826862488E0,6.604865112E0,9.435893156E0
3.388957917E-1,-4.726571045E0,4.719535675E0,6.280190277E0,9.168166706E0
3.488637917E-1,-4.295916595E0,4.844675446E0,6.002068634E0,8.828964121E0
3.588327917E-1,-4.147425385E0,4.092789001E0,5.737568665E0,8.177515106E0
3.688007917E-1,-3.909869385E0,3.383114777E0,5.507048035E0,7.553815079E0
3.787687917E-1,-3.954626312E0,3.374881897E0,5.560037842E0,7.612024559E0
3.887367917E-1,-3.669020233E0,3.308270416E0,5.382656708E0,7.306117700E0
3.987057917E-1,-3.051105194E0,3.028651886E0,4.966971130E0,6.569077360E0
4.086737917E-1,-2.463427277E0,2.582280121E0,4.419260101E0,5.680361292E0
4.186417917E-1,-2.370769958E0,2.312241669E0,3.772305450E0,5.019691240E0
4.286097917E-1,-2.977608032E0,3.193758545E0,3.123255157E0,5.368516184E0
4.385787917E-1,-2.560275879E0,2.796634369E0,2.600093079E0,4.597462386E0
4.485467917E-1,-2.928210754E0,2.376009064E0,2.098486176E0,4.315493196E0
4.585147917E-1,-3.432512054E0,2.150727539E0,2.072440338E0,4.550030429E0
4.684827917E-1,-3.373834076E0,1.592388611E0,2.035467224E0,4.249892314E0
4.784517917E-1,-2.968926086E0,1.072220306E0,1.668280792E0,3.570341621E0
4.884197917E-1,-2.637515259E0,6.613247681E-1,9.554631042E-1,2.882142768E0
4.983877917E-1,-2.236499176E0,2.381547546E-1,8.891510010E-2,2.250900297E0
5.083557917E-1,-2.172731781E0,-6.159690857E-1,-2.652484131E-1,2.273881709E0
5.183247083E-1,-1.845362549E0,-1.302591248E0,-4.796026611E-1,2.309139582E0
5.282927083E-1,-1.167871399E0,-1.618733826E0,-1.383572845E0,2.428682075E0
5.382607083E-1,-1.156794434E0,-1.832938385E0,-1.883832550E0,2.871700117E0
5.482297083E-1,-1.259480896E0,-2.326911163E0,-1.695374451E0,3.142467536E0
5.581977083E-1,-8.026309204E-1,-2.689307556E0,-1.163680115E0,3.038213774E0
5.681657083E-1,-1.305884399E0,-2.953807526E0,-7.472460938E-1,3.314919258E0
5.781337083E-1,-1.884880371E0,-3.459755402E0,-2.300715637E-1,3.946595289E0
5.881017083E-1,-2.517165527E0,-3.636388092E0,1.698966980E-1,4.425867772E0
5.980707083E-1,-2.966980133E0,-3.867208099E0,4.543052673E-1,4.895371576E0
6.080387083E-1,-3.283721466E0,-4.259392548E0,5.998027039E-1,5.411563067E0
6.180067083E-1,-3.828588409E0,-4.678071899E0,7.930508423E-1,6.096833239E0
6.279757083E-1,-4.655917969E0,-4.869523773E0,1.152752838E0,6.835105926E0
6.379437083E-1,-5.305567017E0,-4.756808167E0,1.403331757E0,7.262616975E0
6.479117083E-1,-5.962999878E0,-4.537813568E0,1.474284210E0,7.636925655E0
6.578797083E-1,-7.375462646E0,-4.752167816E0,1.330283661E0,8.874131102E0
6.678487083E-1,-9.264085236E0,-5.201683044E0,1.021176453E0,1.067349910E1
6.778167083E-1,-1.191851532E1,-5.845643921E0,6.114784241E-1,1.328896031E1
6.877847083E-1,-1.658012146E1,-7.630681915E0,8.024812317E-1,1.826942009E1
6.977527083E-1,-2.375036087E1,-1.035411850E1,2.718347168E0,2.605142650E1
7.077217083E-1,-3.186857895E1,-1.190219925E1,7.026687927E0,3.473676747E1
7.176897083E-1,-3.951602600E1,-1.159384048E1,1.230770599E1,4.298154342E1
7.276577083E-1,-4.616400146E1,-1.012045441E1,1.687860077E1,5.018391966E1
7.376257083E-1,-5.021008759E1,-8.838520203E0,1.899355270E1,5.440521463E1
7.475947083E-1,-5.019901062E1,-8.084837494E0,1.766656219E1,5.382762009E1
7.575627083E-1,-4.592704422E1,-7.742948456E0,1.422327255E1,4.869854334E1
7.675307083E-1,-3.946977219E1,-7.603438568E0,1.030382309E1,4.149510772E1
7.774987083E-1,-3.328807709E1,-7.270680542E0,6.845714264E0,3.475374333E1
7.874677083E-1,-2.869353149E1,-6.679260406E0,4.810097351E0,2.985076725E1
7.974357083E-1,-2.557431793E1,-5.683830414E0,4.194727020E0,2.653200710E1
8.074037083E-1,-2.320220078E1,-4.460574188E0,5.035528564E0,2.415771907E1
8.173727083E-1,-2.153736282E1,-3.603905640E0,6.837780762E0,2.288233771E1
8.273407083E-1,-2.040856018E1,-2.918181610E0,8.829987946E0,2.242752326E1
8.373087083E-1,-1.895538208E1,-2.035616913E0,1.003752686E1,2.154535197E1
8.472767083E-1,-1.671454193E1,-5.023553467E-1,9.586664429E0,1.927517595E1
8.572457083E-1,-1.429901505E1,7.972421265E-1,7.757617950E0,1.628735898E1
8.672137083E-1,-1.225860809E1,1.305285645E0,5.536985779E0,1.351426855E1
8.771817083E-1,-9.967173157E0,1.510059814E0,3.599265289E0,1.070418292E1
8.871497083E-1,-7.449408875E0,1.619033203E0,2.025737457E0,7.887875084E0
8.971187083E-1,-4.875062256E0,1.604513397E0,6.421646118E-1,5.172337057E0
9.070867083E-1,-2.369572449E0,1.541494446E0,-6.369255066E-1,2.897715103E0
9.170547083E-1,-2.465373230E-1,1.543739777E0,-1.661095734E0,2.281041908E0
9.270227083E-1,1.466350708E0,1.492695923E0,-2.414479065E0,3.195001514E0
9.369917083E-1,2.690205688E0,1.548679504E0,-2.696791992E0,4.111970562E0
9.469597083E-1,3.547772369E0,1.698368225E0,-2.566113739E0,4.696390437E0
9.569277083E-1,4.237687683E0,1.947001190E0,-2.142644348E0,5.132225184E0
9.668957083E-1,4.577780457E0,2.137554932E0,-1.609303436E0,5.302364807E0
9.768647083E-1,4.478686523E0,2.173031158E0,-1.067879333E0,5.091273285E0
9.868327083E-1,4.103865967E0,2.099833374E0,-5.209167480E-1,4.639220875E0
9.968007083E-1,3.662733307E0,2.146835632E0,-9.235794067E-2,4.246533704E0
1.006768708E0,3.299588470E0,2.311493225E0,2.586621094E-1,4.036977965E0
1.016737708E0,2.944377136E0,2.433788910E0,5.269042969E-1,3.856204522E0
1.026705708E0,2.603984985E0,2.493514709E0,7.355703735E-1,3.679594704E0
1.036673708E0,2.260299683E0,2.509830780E0,9.180409241E-1,3.500143474E0
1.046642708E0,1.907483368E0,2.500400391E0,1.019380188E0,3.305999226E0
1.056610708E0,1.570084991E0,2.443967743E0,1.088536377E0,3.102105197E0
1.066578708E0,1.187779999E0,2.317480774E0,1.159189453E0,2.850483933E0
1.076546708E0,8.526269531E-1,2.190993805E0,1.261576538E0,2.668145786E0
1.086515708E0,6.286926270E-1,2.079625397E0,1.478475494E0,2.627924275E0
1.096483708E0,5.032534790E-1,2.062710571E0,1.756746826E0,2.755757314E0
1.106451708E0,4.248165894E-1,2.140997772E0,2.028581543E0,2.979846250E0
1.116419708E0,2.392025757E-1,2.243384857E0,2.253114624E0,3.188497922E0
1.126388708E0,-5.822891235E-2,2.367027740E0,2.329755249E0,3.321742081E0
1.136356708E0,-4.105961609E-1,2.515818329E0,2.284549255E0,3.423024448E0
1.146324708E0,-1.044228516E0,2.655477905E0,2.008822632E0,3.489605202E0
1.156292708E0,-1.888023834E0,2.848726044E0,1.411115570E0,3.697447934E0
1.166261708E0,-2.629282379E0,2.994971924E0,6.734495544E-1,4.041845736E0
1.176229708E0,-3.180735626E0,3.083587646E0,-9.310638428E-2,4.431056386E0
1.186197708E0,-3.678899689E0,3.149450684E0,-7.670050049E-1,4.903227427E0
1.196165708E0,-4.312232666E0,3.174748077E0,-1.245709534E0,5.497833042E0
1.206134708E0,-5.225184174E0,3.057990875E0,-1.699266357E0,6.288192427E0
1.216102708E0,-6.093079376E0,2.621049500E0,-2.042203217E0,6.940180887E0
1.226070708E0,-7.594457245E0,1.798060913E0,-2.439626770E0,8.176832068E0
1.236038708E0,-9.712852020E0,1.294807434E-1,-3.184627533E0,1.022243181E1
1.246007708E0,-1.276410690E1,-3.378474426E0,-4.246519318E0,1.386973110E1
1.255975708E0,-1.732886444E1,-9.889634399E0,-5.290747833E0,2.064186096E1
1.265943708E0,-2.219719070E1,-1.811473022E1,-4.422702942E0,2.898998150E1
1.275911708E0,-2.463681747E1,-2.463801498E1,-1.104104004E0,3.486005742E1
1.285880708E0,-2.775423477E1,-2.961980530E1,1.871109009E0,4.063411698E1
1.295848708E0,-3.026661026E1,-3.112133286E1,4.273463287E0,4.362187002E1
1.305816708E0,-3.169254501E1,-3.108525787E1,6.321654053E0,4.484053943E1
1.315785708E0,-3.329660934E1,-3.119602753E1,8.364456024E0,4.638771876E1
1.325753708E0,-3.382231613E1,-3.002127045E1,9.311237183E0,4.617277212E1
1.335721708E0,-3.313763992E1,-2.867407196E1,8.895401917E0,4.471502832E1
1.345689708E0,-3.049623276E1,-2.714170853E1,7.930209045E0,4.158822874E1
1.355658708E0,-2.678829346E1,-2.590408218E1,5.581593018E0,3.768007857E1
1.365626708E0,-2.260149994E1,-2.444551529E1,1.787283325E0,3.334074683E1
1.375594708E0,-1.775427979E1,-2.178419952E1,-2.194436646E0,2.818831942E1
1.385562708E0,-1.328577209E1,-1.810200668E1,-5.276377716E0,2.306587410E1
1.395531708E0,-1.023167313E1,-1.392269760E1,-6.789431305E0,1.856407878E1
1.405499708E0,-8.300688629E0,-9.750872955E0,-6.586752777E0,1.440021761E1
1.415467708E0,-7.274273071E0,-6.059100037E0,-5.216801605E0,1.080938301E1
1.425435708E0,-6.747368774E0,-2.975063324E0,-3.547173615E0,8.182935159E0
1.435404708E0,-6.447691956E0,-5.719606018E-1,-2.197280731E0,6.835781820E0
1.445372708E0,-6.284531250E0,1.284179535E0,-1.387015686E0,6.562641436E0
1.455340708E0,-5.836512909E0,2.801274719E0,-1.052012329E0,6.558868266E0
1.465309708E0,-5.138514404E0,3.870950317E0,-1.046623535E0,6.517975719E0
1.475277708E0,-4.097129974E0,4.488416290E0,-1.280587006E0,6.210656801E0
1.485245708E0,-2.979104919E0,4.530778198E0,-1.588496704E0,5.650339723E0
1.495213708E0,-1.762734375E0,4.137994995E0,-1.955832825E0,4.904642402E0
1.505182708E0,-5.141807556E-1,3.604803772E0,-2.373314667E0,4.346448503E0
1.515150958E0,6.092330933E-1,3.088826752E0,-2.642155609E0,4.110109722E0
1.525118958E0,1.425036621E0,2.567760315E0,-2.612666931E0,3.930667997E0
1.535086958E0,1.936672668E0,2.084415436E0,-2.281854858E0,3.647238727E0
1.545055958E0,2.120789795E0,1.810934143E0,-1.650767212E0,3.240719706E0
1.555023958E0,2.054328003E0,1.781445465E0,-8.490344238E-1,2.848626150E0
1.564991958E0,1.865720215E0,1.956730957E0,-1.107696533E-2,2.703669850E0
1.574959958E0,1.569785614E0,2.196532288E0,7.797285461E-1,2.810152588E0
1.584928958E0,1.196162567E0,2.424807587E0,1.403930511E0,3.046558321E0
1.594896958E0,8.280780029E-1,2.541864166E0,1.867217102E0,3.260872019E0
1.604864958E0,4.784051514E-1,2.539768524E0,2.103725281E0,3.332409894E0
1.614832958E0,1.785786438E-1,2.417921906E0,2.184108124E0,3.263213902E0
1.624801958E0,-9.400451660E-2,2.294877777E0,2.176473999E0,3.164228173E0
1.634769958E0,-3.674858093E-1,2.249671783E0,2.120191040E0,3.113081913E0
1.644737958E0,-6.255491638E-1,2.234253845E0,2.076182556E0,3.113476515E0
1.654705958E0,-8.876541138E-1,2.240540771E0,1.971101074E0,3.113389185E0
1.664674958E0,-1.196761322E0,2.233954468E0,1.797162781E0,3.106860841E0
1.674642958E0,-1.461560669E0,2.237696686E0,1.571731567E0,3.100610612E0
1.684610958E0,-1.701362000E0,2.260748749E0,1.331181793E0,3.126925411E0
1.694579958E0,-1.958377533E0,2.286345520E0,1.030756531E0,3.181992681E0
1.704547958E0,-2.162702637E0,2.280357971E0,7.387138367E-1,3.228469189E0
1.714515958E0,-2.303709412E0,2.220332794E0,4.343966675E-1,3.228878325E0
1.724483958E0,-2.510130157E0,2.027234344E0,1.612147522E-1,3.230545262E0
1.734452958E0,-2.890788574E0,1.728755035E0,-1.603166199E-1,3.372084514E0
1.744420958E0,-3.539389801E0,1.165326691E0,-5.689668274E-1,3.769481358E0
1.754388958E0,-4.471800842E0,2.398013306E-1,-8.951385498E-1,4.566812945E0
1.764356958E0,-5.522915039E0,-9.303153992E-1,-1.170416107E0,5.721708760E0
1.774325958E0,-7.359445953E0,-2.745590515E0,-1.610500946E0,8.018318110E0
1.784293958E0,-1.012404694E1,-6.081703033E0,-2.278412018E0,1.202807547E1
1.794261958E0,-1.377720016E1,-1.148172363E1,-2.555635529E0,1.811553187E1
1.804229958E0,-1.767240005E1,-1.834105957E1,-1.813179474E0,2.553420862E1
1.814198958E0,-2.128498764E1,-2.414479065E1,-5.093907166E-1,3.219132015E1
1.824166958E0,-2.562042206E1,-2.824970444E1,7.515870667E-1,3.814468129E1
1.834134958E0,-2.763867508E1,-2.970213409E1,2.101030884E0,4.062668410E1
1.844102958E0,-2.843741409E1,-3.071283234E1,1.528920593E0,4.188439075E1
1.854071958E0,-2.844624573E1,-3.166111038E1,8.861572266E-1,4.257229241E1
1.864039958E0,-2.709515533E1,-3.085832977E1,1.690734100E0,4.110039587E1
1.874007958E0,-2.562311646E1,-2.952535172E1,2.756218414E0,3.919039717E1
1.883976958E0,-2.406545563E1,-2.821946732E1,3.540737000E0,3.725615800E1
1.893944958E0,-2.236813522E1,-2.649924454E1,3.582649841E0,3.486228355E1
1.903912958E0,-2.011367340E1,-2.367626495E1,2.763553162E0,3.118914244E1
1.913880958E0,-1.761731461E1,-1.990201355E1,1.220262451E0,2.660731023E1
1.923849958E0,-1.574410995E1,-1.603256012E1,-8.214916992E-1,2.248543597E1
1.933817958E0,-1.381462234E1,-1.231833389E1,-2.597099304E0,1.869037360E1
1.943785958E0,-1.197569641E1,-8.949140167E0,-3.928730164E0,1.545766266E1
1.953753958E0,-1.004082001E1,-5.742358704E0,-4.558021545E0,1.243255043E1
1.963722958E0,-8.239915009E0,-2.739602966E0,-4.595593414E0,9.824515387E0
1.973690958E0,-6.863227844E0,-1.145118713E-1,-4.388573914E0,8.147182974E0
1.983658958E0,-5.957162018E0,2.072290649E0,-4.024980011E0,7.482154231E0
1.993626958E0,-5.431305542E0,3.773353271E0,-3.366499329E0,7.420956308E0
2.003595958E0,-5.064717865E0,4.885839844E0,-2.529290314E0,7.477974828E0
2.013563958E0,-4.642895050E0,5.516927490E0,-1.753603363E0,7.420787568E0
2.023531958E0,-4.081262970E0,5.609734497E0,-1.077010345E0,7.020383169E0
2.033500958E0,-3.330723724E0,5.395380249E0,-5.432203674E-1,6.363877507E0
2.043468958E0,-2.625989227E0,4.935686188E0,-1.529818726E-1,5.592872341E0
2.053436958E0,-1.958078156E0,4.270020447E0,1.892065430E-1,4.701376798E0
2.063404958E0,-1.334624634E0,3.629951477E0,5.369334412E-1,3.904621385E0
2.073373958E0,-7.514373779E-1,3.142864380E0,9.274713135E-1,3.361912801E0
2.083341958E0,-2.255809021E-1,2.908451843E0,1.333277435E0,3.207430060E0
2.093309958E0,8.023315430E-2,2.901117096E0,1.771715698E0,3.400278559E0
2.103277958E0,6.212081909E-2,3.007096710E0,2.206561432E0,3.730335504E0
2.113246958E0,-1.371148682E-1,3.184477844E0,2.567610626E0,4.092960292E0
2.123214958E0,-3.580554199E-1,3.361260223E0,2.762205963E0,4.365324244E0
2.133182958E0,-5.683680725E-1,3.474873962E0,2.844983826E0,4.526778577E0
2.143150958E0,-7.837701416E-1,3.517086182E0,2.752326508E0,4.534257607E0
2.153119958E0,-1.023272095E0,3.483406219E0,2.510429535E0,4.414007376E0
2.163087958E0,-1.222807159E0,3.519630890E0,2.243833923E0,4.349465441E0
2.173055958E0,-1.459764404E0,3.538641357E0,1.991309052E0,4.314881981E0
2.183023958E0,-1.785936127E0,3.504362640E0,1.700014801E0,4.284877558E0
2.192992958E0,-2.141596527E0,3.381468201E0,1.342707825E0,4.221803783E0
2.202960958E0,-2.510579224E0,3.193758545E0,9.322613525E-1,4.167998670E0
2.212928958E0,-2.847229156E0,2.954705658E0,5.063969421E-1,4.134421031E0
2.222897958E0,-3.100801849E0,2.659070435E0,1.425036621E-1,4.087289442E0
2.232865958E0,-3.364852753E0,2.323318634E0,-1.722917175E-1,4.092643151E0
2.242833958E0,-3.585493927E0,1.959275665E0,-5.098397827E-1,4.117579925E0
2.252801958E0,-3.765719147E0,1.635948029E0,-7.923023987E-1,4.181472197E0
2.262770958E0,-4.146377563E0,1.214873657E0,-1.078207855E0,4.453189540E0
2.272738958E0,-4.843927002E0,4.382885742E-1,-1.339264984E0,5.044735511E0
2.282706958E0,-5.984704742E0,-8.116122437E-1,-1.392254791E0,6.197885018E0
2.292674958E0,-7.699239349E0,-2.780318298E0,-1.228345642E0,8.277517105E0
2.302643958E0,-1.005339386E1,-5.993536377E0,-1.262324982E0,1.177228401E1
2.312611958E0,-1.398886002E1,-1.176179123E1,-1.698667603E0,1.835520115E1
2.322579958E0,-1.989752289E1,-2.065360062E1,-1.880689087E0,2.874055718E1
2.332547958E0,-2.648771851E1,-2.914559143E1,-2.124082947E-1,3.938413194E1
2.342516958E0,-2.981410126E1,-3.299932755E1,3.310815125E0,4.459593871E1
2.352484958E0,-3.183100708E1,-3.554238922E1,5.467829590E0,4.802469785E1
2.362452958E0,-3.237587402E1,-3.664574478E1,5.159770203E0,4.917042869E1
2.372420958E0,-3.049728058E1,-3.368115967E1,5.165907440E0,4.572954449E1
2.382389958E0,-2.818054825E1,-2.964435425E1,5.154082031E0,4.122493905E1
2.392357958E0,-2.588492203E1,-2.691597794E1,4.398303680E0,3.760111876E1
2.402325958E0,-2.248758682E1,-2.404449921E1,4.488266602E0,3.322610480E1
2.412294958E0,-1.861708557E1,-2.251976990E1,3.834126892E0,2.946924567E1
2.422262958E0,-1.349638412E1,-2.068728058E1,1.314716034E0,2.473548949E1
2.432230958E0,-8.344098358E0,-1.750160522E1,-2.091001740E0,1.950134485E1
2.442198958E0,-4.610711975E0,-1.378842682E1,-5.077890472E0,1.540014126E1
2.452167958E0,-2.516117706E0,-9.953401794E0,-6.853947144E0,1.234413411E1
2.462135958E0,-1.501677246E0,-6.144422607E0,-7.399712219E0,9.734716465E0
2.472103958E0,-1.248553619E0,-2.686313782E0,-7.331903229E0,7.907716031E0
2.482071958E0,-1.191372528E0,2.408491516E-1,-6.931336212E0,7.037101570E0
2.492040958E0,-8.928932190E-1,2.552641754E0,-5.898933105E0,6.489271917E0
2.502008958E0,-5.463638306E-1,3.857777710E0,-4.449946289E0,5.914641517E0
2.511976958E0,-1.559756470E-1,4.101171570E0,-2.991978149E0,5.078963467E0
2.521944042E0,2.588117981E-1,3.656296692E0,-1.779349823E0,4.074503017E0
2.531913042E0,5.084925842E-1,2.738555145E0,-8.672964478E-1,2.917267921E0
2.541881042E0,7.129673767E-1,1.805545349E0,-3.278182983E-2,1.941491987E0
2.551849042E0,1.117875366E0,1.346599731E0,8.027806091E-1,1.925469521E0
2.561817042E0,1.555116119E0,1.423240356E0,1.563498688E0,2.624600427E0
2.571786042E0,1.665436707E0,1.808688812E0,2.284998322E0,3.356523793E0
2.581754042E0,1.490899658E0,2.182461548E0,2.961890717E0,3.969725030E0
2.591722042E0,1.160087585E0,2.332449646E0,3.300636292E0,4.204797794E0
2.601691042E0,6.683601379E-1,2.204914856E0,3.245700531E0,3.980317416E0
2.611659042E0,1.448986816E-1,1.863175507E0,3.016227722E0,3.548245802E0
2.621627042E0,-2.492317200E-1,1.468446350E0,2.727178802E0,3.107403314E0
2.631595042E0,-4.279600525E-1,1.022373962E0,2.267933807E0,2.524266642E0
2.641564042E0,-4.802014160E-1,5.914201355E-1,1.619332581E0,1.789583522E0
2.651532042E0,-4.683760071E-1,3.053649902E-1,9.569599915E-1,1.108330405E0
2.661500042E0,-6.451583862E-1,2.511776733E-1,4.432283020E-1,8.220528539E-1
2.671468042E0,-1.029109955E0,4.379891968E-1,8.906478882E-2,1.121977884E0
2.681437042E0,-1.494941254E0,7.685018921E-1,-1.245410156E-1,1.685513267E0
2.691405042E0,-2.189047852E0,1.159189453E0,-3.234773254E-1,2.498056898E0
2.701373042E0,-2.834355927E0,1.535057831E0,-4.321513367E-1,3.252188623E0
2.711341042E0,-3.298690338E0,1.810784454E0,-4.840933228E-1,3.794027495E0
2.721310042E0,-3.623664551E0,1.926942902E0,-5.315446472E-1,4.138428861E0
2.731278042E0,-3.895948334E0,1.807341614E0,-4.869374084E-1,4.322268521E0
2.741246042E0,-4.185745697E0,1.424886932E0,-4.077520752E-1,4.440386421E0
2.751214042E0,-4.688849487E0,8.644523621E-1,-4.468208313E-1,4.788761453E0
2.761183042E0,-5.476212158E0,8.292755127E-2,-6.653663635E-1,5.517108752E0
2.771151042E0,-6.560108185E0,-1.236877899E0,-9.445358276E-1,6.742183197E0
2.781119042E0,-8.213869171E0,-3.445684662E0,-1.359472961E0,9.010469260E0
2.791088042E0,-1.173589508E1,-7.314539337E0,-1.911824341E0,1.396025757E1
2.801056042E0,-1.680615143E1,-1.375774063E1,-2.442171478E0,2.185603703E1
2.811024042E0,-2.181084412E1,-2.106120300E1,-1.578168182E0,3.036079393E1
2.820992042E0,-2.517464905E1,-2.574526245E1,8.652008057E-1,3.601846840E1
2.830961042E0,-2.748674103E1,-2.683439758E1,3.504362640E0,3.857313033E1
2.840929042E0,-3.122087585E1,-2.737567200E1,4.495152283E0,4.176573836E1
2.850897042E0,-3.418591003E1,-2.719844055E1,5.419180756E0,4.402043995E1
2.860865042E0,-3.345303406E1,-2.338616821E1,6.891519012E0,4.139458160E1
2.870834042E0,-3.147953796E1,-1.937810303E1,6.644083557E0,3.755816867E1
2.880802042E0,-2.849758896E1,-1.681049240E1,5.564977570E0,3.355106864E1
2.890770042E0,-2.493589554E1,-1.606923386E1,3.009342041E0,2.981736579E1
2.900738042E0,-2.116478760E1,-1.633942200E1,-7.945477295E-1,2.674988320E1
2.910707042E0,-1.710837296E1,-1.610964981E1,-4.219126282E0,2.387505537E1
2.920675042E0,-1.293175827E1,-1.542287796E1,-6.445895691E0,2.113397993E1
2.930643042E0,-9.135502625E0,-1.426533508E1,-7.607779541E0,1.856974698E1
2.940612042E0,-6.424041138E0,-1.276695099E1,-8.145611115E0,1.645035934E1
2.950580042E0,-5.157824249E0,-1.096185471E1,-8.037086792E0,1.453823145E1
2.960548042E0,-4.946164398E0,-8.857231293E0,-7.009623413E0,1.233085191E1
2.970516042E0,-5.130580902E0,-6.755601654E0,-5.200784912E0,9.950335562E0
2.980485042E0,-5.622458038E0,-4.972060547E0,-3.513493652E0,8.287222582E0
2.990453042E0,-5.448370056E0,-3.319347382E0,-2.416724396E0,6.822269425E0
3.000421042E0,-4.327351227E0,-1.843117218E0,-1.630708923E0,4.978178513E0
3.010389042E0,-2.291285248E0,-6.447093201E-1,-9.904902649E-1,2.578121246E0
3.020358042E0,2.989283752E-1,4.074526978E-1,-5.981561279E-1,7.830495692E-1
3.030326042E0,2.761607208E0,1.045575714E0,-2.492317200E-1,2.963413470E0
3.040294042E0,4.478836212E0,1.025367737E0,3.689826965E-1,4.609501171E0
3.050262042E0,5.235662384E0,4.230203247E-1,1.290616150E0,5.408955245E0
3.060231042E0,5.736071777E0,-2.863545227E-1,2.476150818E0,6.254265842E0
3.070199042E0,6.300697632E0,-4.953199768E-1,3.485202484E0,7.217393496E0
3.080167042E0,6.813381500E0,-2.939886475E-1,3.806434479E0,7.810092204E0
3.090136042E0,6.890022125E0,-1.495390320E-1,3.420836334E0,7.693951393E0
3.100104042E0,6.066734161E0,-3.899391174E-1,2.675835571E0,6.642093940E0
3.110072042E0,5.142106934E0,-7.728428650E-1,1.861977997E0,5.523179507E0
3.120040042E0,4.448449402E0,-8.378077698E-1,1.011147308E0,4.638215478E0
3.130009042E0,3.738176422E0,-6.689588928E-1,3.252735901E-1,3.811465843E0
3.139977042E0,3.058589630E0,-4.379891968E-1,-2.107617188E-1,3.096970385E0
3.149945042E0,2.266287231E0,-1.178050232E-1,-6.300398254E-1,2.355182800E0
3.159913042E0,1.600920868E0,1.050814819E-1,-6.641688538E-1,1.736407213E0
3.169882042E0,9.982740784E-1,2.390528870E-1,-4.123924255E-1,1.106239093E0
3.179850042E0,2.752775574E-1,3.288661194E-1,-4.236190796E-2,4.309584543E-1
3.189818042E0,-6.487509155E-1,3.225791931E-1,2.628533936E-1,7.707314660E-1
3.199786042E0,-1.498982849E0,2.130070496E-1,6.486012268E-1,1.647120256E0
3.209755042E0,-1.961371307E0,-3.134481812E-1,1.450483704E0,2.459497945E0
3.219723042E0,-2.308499451E0,-9.301657104E-1,2.143841858E0,3.284879887E0
3.229691042E0,-2.800825653E0,-1.453477478E0,2.825973358E0,4.235958751E0
3.239659042E0,-3.697311401E0,-1.825004883E0,3.101699982E0,5.159583045E0
3.249628042E0,-5.391338654E0,-2.307301941E0,2.410437469E0,6.340377238E0
3.259596042E0,-7.370971985E0,-2.933300171E0,1.632056122E0,8.099326211E0
3.269564042E0,-1.003228775E1,-4.578528900E0,4.638853455E-1,1.103743240E1
3.279533042E0,-1.380998199E1,-8.221054230E0,-1.060394897E0,1.610669962E1
3.289501042E0,-1.753303986E1,-1.291858566E1,-1.280736694E0,2.181599479E1
3.299469042E0,-2.145248932E1,-1.650707336E1,-8.451425171E-1,2.708148879E1
3.309437042E0,-2.571846817E1,-1.893203064E1,-8.569679260E-1,3.194676483E1
3.319406042E0,-3.075564331E1,-2.136537048E1,-1.935175781E0,3.749844739E1
3.329374042E0,-3.466132141E1,-2.341430969E1,-2.245330811E0,4.188888410E1
3.339342042E0,-3.618111099E1,-2.426109879E1,-1.238225098E0,4.357989110E1
3.349310042E0,-3.627436707E1,-2.436692871E1,7.762857056E-1,4.370560079E1
3.359279042E0,-3.482672745E1,-2.389286453E1,3.704496460E0,4.239685383E1
3.369247042E0,-3.207425125E1,-2.246019379E1,5.952072601E0,3.960612410E1
3.379215042E0,-2.856464951E1,-2.035886353E1,5.190157013E0,3.545927601E1
3.389183042E0,-2.386472305E1,-1.761671585E1,2.596051483E0,2.977605023E1
3.399152042E0,-1.868025421E1,-1.526585449E1,-1.613644409E-1,2.412517874E1
3.409120042E0,-1.299492691E1,-1.271860153E1,-1.832189941E0,1.827533503E1
3.419088042E0,-8.471184082E0,-9.670639801E0,-2.567910004E0,1.311016383E1
3.429057042E0,-5.482948151E0,-6.763984222E0,-2.701731720E0,9.116663714E0
3.439025042E0,-3.531456299E0,-4.203408966E0,-2.308050385E0,5.955411581E0
3.448993042E0,-2.092648315E0,-2.082020416E0,-1.714235229E0,3.413588787E0
3.458961042E0,-7.867639160E-1,-5.381309509E-1,-1.244811401E0,1.567844956E0
3.468930042E0,6.271957397E-1,6.054908752E-1,-9.728269958E-1,1.306287128E0
3.478898042E0,2.123334503E0,1.152902527E0,-9.098080444E-1,2.581759928E0
3.488866042E0,3.651506653E0,1.184037781E0,-9.756710815E-1,3.960729776E0
3.498834042E0,5.216502228E0,8.846603394E-1,-1.214723969E0,5.428634610E0
3.508803042E0,6.437962189E0,2.902464294E-1,-1.395248566E0,6.593809119E0
3.518771042E0,7.144642639E0,-3.115022278E-1,-1.251397705E0,7.260092857E0
3.528739042E0,7.225773926E0,-7.592211914E-1,-8.208929443E-1,7.311777545E0
3.538708042E0,6.664740601E0,-1.081201630E0,-2.649490356E-2,6.751923150E0
3.548676042E0,5.610033875E0,-1.324296112E0,9.792636108E-1,5.846810882E0
3.558644042E0,4.396507416E0,-1.389710083E0,2.026186523E0,5.036467353E0
3.568612042E0,3.194656677E0,-1.276096344E0,2.987188110E0,4.556044992E0
3.578581042E0,2.200124817E0,-1.095871124E0,3.654799805E0,4.404434622E0
3.588549042E0,1.430275726E0,-1.018781433E0,3.941453705E0,4.314934712E0
3.598517042E0,7.587721252E-1,-1.044527893E0,3.869453430E0,4.079147399E0
3.608485042E0,2.210902405E-1,-1.283730469E0,3.462000732E0,3.698958486E0
3.618454042E0,-1.598675537E-1,-1.567091217E0,2.786006470E0,3.200494425E0
3.628422042E0,-4.059558105E-1,-1.620530090E0,1.983375549E0,2.593201971E0
3.638390042E0,-5.903723145E-1,-1.393901367E0,1.144220581E0,1.897561917E0
3.648358042E0,-5.908213806E-1,-1.040336609E0,3.894900513E-1,1.258202155E0
3.658327042E0,-5.499563599E-1,-6.497987366E-1,-2.154020691E-1,8.781164201E-1
3.668295042E0,-6.442602539E-1,-3.203338623E-1,-6.692582703E-1,9.826452516E-1
3.678263042E0,-9.153465271E-1,-4.116439819E-2,-9.675878906E-1,1.332583993E0
3.688231042E0,-1.164877625E0,1.059796143E-1,-1.225351868E0,1.694006717E0
3.698200042E0,-1.482816467E0,3.532653809E-2,-1.616338806E0,2.193751074E0
3.708168042E0,-2.423460388E0,-6.436614990E-1,-2.266436920E0,3.379969925E0
3.718136042E0,-3.675007782E0,-2.289788361E0,-3.201991425E0,5.385309835E0
3.728105042E0,-4.903353424E0,-4.597539368E0,-4.281845856E0,7.969595157E0
3.738073042E0,-6.639742584E0,-7.413932648E0,-5.575306091E0,1.140774373E1
3.748041042E0,-9.357940063E0,-1.121572678E1,-6.536008301E0,1.600259272E1
3.758009042E0,-1.359487930E1,-1.680465454E1,-6.374643860E0,2.253559943E1
3.767978042E0,-1.841261078E1,-2.308783859E1,-4.026925964E0,2.980417184E1
3.777946042E0,-2.128274231E1,-2.644670380E1,-9.550140381E-2,3.394690534E1
3.787914042E0,-2.284145096E1,-2.723930557E1,2.568808136E0,3.564141447E1
3.797882042E0,-2.428280365E1,-2.706042755E1,3.624562683E0,3.653845573E1
3.807851042E0,-2.498334686E1,-2.617801254E1,2.764600983E0,3.629185831E1
3.817819042E0,-2.364782410E1,-2.359633118E1,4.266128540E-2,3.340670965E1
3.827787042E0,-2.169752975E1,-2.043685135E1,-3.219505005E0,2.998020852E1
3.837756042E0,-1.971894424E1,-1.766626282E1,-6.615642700E0,2.728919809E1
3.847724042E0,-1.803943680E1,-1.586041809E1,-1.034783157E1,2.615438319E1
3.857692042E0,-1.619242767E1,-1.408660675E1,-1.343695770E1,2.532151330E1
3.867660042E0,-1.406744659E1,-1.168500092E1,-1.502006561E1,2.366505168E1
3.877629042E0,-1.225052490E1,-9.137448578E0,-1.479732880E1,2.127273528E1
3.887597042E0,-1.117755615E1,-7.115752716E0,-1.290795776E1,1.849829916E1
3.897565042E0,-1.053988220E1,-5.936355286E0,-1.033555710E1,1.591078790E1
3.907533042E0,-9.934391327E0,-5.475164337E0,-7.704478455E0,1.371235005E1
3.917502042E0,-8.992400208E0,-5.567522278E0,-4.847818909E0,1.163451391E1
3.927470042E0,-7.682324524E0,-5.721551971E0,-1.814227295E0,9.749137794E0
3.937438042E0,-6.275250549E0,-5.505700836E0,8.996292114E-1,8.396478064E0
3.947406042E0,-5.098547516E0,-4.679119720E0,2.960543518E0,7.526896177E0
3.957375042E0,-4.416266327E0,-3.651955719E0,4.557722168E0,7.322091245E0
3.967343042E0,-3.716770935E0,-2.339784393E0,6.286028137E0,7.668319694E0
3.977311042E0,-2.899171143E0,-5.342390442E-1,7.708520050E0,8.252992550E0
3.987280042E0,-1.866768036E0,1.481768646E0,8.290060730E0,8.625866225E0
3.997248042E0,-8.207432556E-1,3.350183258E0,8.098159790E0,8.802132659E0
4.007216042E0,1.640588379E-1,4.780309296E0,7.298372955E0,8.726082744E0
4.017184042E0,9.222322083E-1,5.416785736E0,6.117179260E0,8.222649333E0
4.027153042E0,1.245859222E0,5.267546082E0,4.454137573E0,7.009889332E0
4.037121042E0,1.145418091E0,4.595593414E0,2.528242493E0,5.368749532E0
4.047089042E0,8.896000671E-1,3.743565216E0,7.168592834E-1,3.914020444E0
4.057057042E0,7.460485840E-1,3.075205078E0,-6.447093201E-1,3.229415562E0
4.067026042E0,8.152047729E-1,2.831062775E0,-1.499880981E0,3.305921689E0
4.076994042E0,6.885681152E-1,2.934347992E0,-1.897304535E0,3.561500903E0
4.086962042E0,1.981878662E-1,3.204536133E0,-1.917362823E0,3.739600307E0
4.096930042E0,-4.715194702E-1,3.456312561E0,-1.610351257E0,3.842090356E0
4.106899042E0,-1.238075409E0,3.665128326E0,-1.346599731E0,4.096257707E0
4.116867042E0,-1.967658234E0,3.845802612E0,-1.277144165E0,4.504772344E0
4.126835042E0,-2.762355652E0,3.800446930E0,-1.167122955E0,4.841093018E0
4.136804042E0,-3.658991089E0,3.525768127E0,-9.888436890E-1,5.176588502E0
4.146772042E0,-4.622537384E0,2.965333557E0,-8.925938416E-1,5.563971490E0
4.156740042E0,-5.549110565E0,2.098486176E0,-8.933422852E-1,5.999527709E0
4.166708042E0,-6.514004059E0,9.668394470E-1,-8.223898315E-1,6.636516589E0
4.176677042E0,-8.030949554E0,-6.090834045E-1,-7.369175720E-1,8.087656079E0
4.186645042E0,-1.023137375E1,-3.152743835E0,-7.978408813E-1,1.073579771E1
4.196613042E0,-1.320089859E1,-7.155270538E0,-1.151405640E0,1.505946065E1
4.206581042E0,-1.666858749E1,-1.270303391E1,-1.338965607E0,2.100004067E1
4.216550042E0,-2.030332901E1,-1.877126495E1,-1.042282562E0,2.767077718E1
4.226518042E0,-2.442470856E1,-2.458891708E1,-8.170010376E-1,3.466768989E1
4.236486042E0,-2.664863388E1,-2.861719025E1,1.645079041E-1,3.910396819E1
4.246455042E0,-2.630479889E1,-2.926399521E1,1.662442932E0,3.938384919E1
4.256423042E0,-2.662558182E1,-2.867227570E1,2.217039642E0,3.919102277E1
4.266391042E0,-2.821722198E1,-2.884860901E1,1.439556427E0,4.037977440E1
4.276359042E0,-2.778896255E1,-2.842678619E1,-4.320016479E-1,3.975544288E1
4.286328042E0,-2.465597763E1,-2.686583221E1,-2.615511017E0,3.655859778E1
4.296296042E0,-2.111958160E1,-2.561727859E1,-4.511318665E0,3.350572616E1
4.306264042E0,-1.770952286E1,-2.449042191E1,-5.426814880E0,3.070599754E1
4.316232042E0,-1.445978073E1,-2.274654831E1,-5.306614838E0,2.747090970E1
4.326201042E0,-1.151510422E1,-1.975501923E1,-4.698728943E0,2.334387422E1
4.336169042E0,-9.221873016E0,-1.619811584E1,-4.209995270E0,1.910879271E1
4.346137042E0,-7.409142609E0,-1.252026398E1,-4.043541412E0,1.509975600E1
4.356106042E0,-5.786816254E0,-9.049730988E0,-3.925886078E0,1.143667149E1
4.366074042E0,-4.267775116E0,-6.129304047E0,-3.341351624E0,8.182108726E0
4.376042042E0,-3.107088776E0,-3.817212067E0,-2.318079529E0,5.440459661E0
4.386010042E0,-2.253414001E0,-2.008223877E0,-1.284778290E0,3.280471469E0
4.395979042E0,-1.723964996E0,-6.087840271E-1,-3.406915283E-1,1.859769883E0
4.405947042E0,-1.471889191E0,5.081932068E-1,3.999682617E-1,1.607697962E0
4.415915042E0,-1.461410980E0,1.266665955E0,9.240284729E-1,2.143360285E0
4.425883042E0,-1.464853821E0,1.676962738E0,1.206640778E0,2.532584195E0
4.435852042E0,-1.253493347E0,1.757345581E0,1.243913269E0,2.491350895E0
4.445820042E0,-8.265811157E-1,1.588945770E0,1.113235016E0,2.108856847E0
4.455788042E0,-3.686833191E-1,1.434317322E0,1.040935364E0,1.810176787E0
4.465756042E0,-5.298980713E-2,1.248852997E0,1.134790192E0,1.688250724E0
4.475725042E0,8.158035278E-2,1.069376221E0,1.337468719E0,1.714363856E0
4.485693042E0,3.652404785E-2,8.875044250E-1,1.557211761E0,1.792737176E0
4.495661042E0,-1.074765015E-1,7.138655090E-1,1.594334564E0,1.750159383E0
4.505630042E0,-1.848655701E-1,6.722520447E-1,1.330882416E0,1.502446703E0
4.515598917E0,-1.655557251E-1,7.457492065E-1,9.111552429E-1,1.189014068E0
4.525566917E0,-4.266128540E-2,8.412506104E-1,3.830534363E-1,9.253391323E-1
4.535534917E0,1.101708984E-1,9.701325989E-1,-1.839674377E-1,9.935486422E-1
4.545503917E0,2.471360779E-1,1.171463928E0,-7.884104919E-1,1.433525403E0
4.555471917E0,5.578898621E-1,1.390458527E0,-1.343456268E0,2.012334653E0
4.565439917E0,8.150550842E-1,1.603016510E0,-1.720372467E0,2.488706119E0
4.575407917E0,7.397616577E-1,1.849853210E0,-1.792821808E0,2.680189218E0
4.585376917E0,4.258644104E-1,2.211501160E0,-1.561253357E0,2.740366749E0
4.595344917E0,1.345701599E-1,2.496209106E0,-1.064735870E0,2.717136637E0
4.605312917E0,-2.299218750E-1,2.674188995E0,-5.355862427E-1,2.736969761E0
4.615281917E0,-7.170089722E-1,2.782563629E0,-2.210902405E-1,2.881951268E0
4.625249917E0,-1.085243225E0,2.813848572E0,-8.517288208E-2,3.017076575E0
4.635217917E0,-1.236877899E0,2.750530243E0,-1.686991882E-1,3.020553421E0
4.645185917E0,-1.516047363E0,2.589614868E0,-3.963757324E-1,3.026816561E0
4.655154917E0,-1.954485626E0,2.221530304E0,-6.083349609E-1,3.020808233E0
4.665122917E0,-2.456541595E0,1.858535156E0,-8.647517395E-1,3.199460128E0
4.675090917E0,-3.139271851E0,1.343306580E0,-1.150058441E0,3.603072957E0
4.685058917E0,-4.468657379E0,3.924838257E-1,-1.564995575E0,4.751016047E0
4.695027917E0,-6.588549042E0,-1.436712341E0,-2.135159912E0,7.073332219E0
4.704995917E0,-9.266779633E0,-4.434228973E0,-2.841690674E0,1.065883658E1
4.714963917E0,-1.241428436E1,-9.321416016E0,-3.619772644E0,1.594070283E1
4.724932917E0,-1.709684692E1,-1.696362396E1,-3.860023041E0,2.439193495E1
4.734900917E0,-2.196307755E1,-2.490730499E1,-2.540966034E0,3.330476131E1
4.744868917E0,-2.586351654E1,-3.026795746E1,-6.915618896E-2,3.981300691E1
4.754836917E0,-2.993055908E1,-3.359389114E1,1.675316162E0,4.502437755E1
4.764805917E0,-3.254741730E1,-3.480217850E1,2.683769073E0,4.772555518E1
4.774773917E0,-3.302971436E1,-3.328164047E1,3.614234161E0,4.702863289E1
4.784741917E0,-3.082315292E1,-2.968387207E1,3.660637665E0,4.294879842E1
4.794710917E0,-2.750964340E1,-2.678949097E1,2.893482971E0,3.850752589E1
4.804678917E0,-2.432217178E1,-2.539349396E1,2.271975403E0,3.523576944E1
4.814646917E0,-2.071602081E1,-2.456137436E1,9.583071899E-1,3.214549706E1
4.824614917E0,-1.666888687E1,-2.288560913E1,-9.383985901E-1,2.832813949E1
4.834583917E0,-1.228480362E1,-1.972957214E1,-3.047512665E0,2.344055781E1
4.844551917E0,-8.693022766E0,-1.584440140E1,-5.375771027E0,1.885504215E1
4.854519917E0,-6.259832611E0,-1.174188263E1,-7.388485565E0,1.521995502E1
4.864487917E0,-4.636308746E0,-7.643106079E0,-8.517288208E0,1.234733282E1
4.874456917E0,-3.593277740E0,-3.734434204E0,-8.412955170E0,9.881065653E0
4.884424917E0,-3.255430298E0,-5.369334412E-1,-7.428901520E0,8.128634678E0
4.894392917E0,-3.313659210E0,1.709594879E0,-6.003565521E0,7.067237861E0
4.904361917E0,-3.348386993E0,3.047961731E0,-4.458927612E0,6.354825066E0
4.914329917E0,-3.087928619E0,3.719016266E0,-3.066972198E0,5.724744851E0
4.924297917E0,-2.442770233E0,3.929628296E0,-2.161505127E0,5.106976539E0
4.934265917E0,-1.599573669E0,3.651806030E0,-1.755399628E0,4.356116511E0
4.944234917E0,-7.131170654E-1,3.115770721E0,-1.422940979E0,3.498760376E0
4.954202917E0,-4.370910645E-2,2.656076660E0,-9.021739197E-1,2.805453883E0
4.964170917E0,4.333488464E-1,2.252665558E0,-2.715353394E-1,2.309983718E0
4.974138917E0,7.441026306E-1,1.852697296E0,2.779719543E-1,2.015798701E0
4.984107917E0,8.532257080E-1,1.411115570E0,7.900570679E-1,1.828505245E0
4.994075917E0,7.382647705E-1,1.055754547E0,1.318009186E0,1.843041169E0
5.004043917E0,4.058061218E-1,8.116122437E-1,1.849104767E0,2.059752772E0
5.014012917E0,9.460327148E-2,7.680528259E-1,2.296075287E0,2.422976815E0
5.023980917E0,-1.231938171E-1,8.957373047E-1,2.578537903E0,2.732467704E0
5.033948917E0,-3.351530457E-1,1.042132874E0,2.570754089E0,2.794126890E0
5.043916917E0,-6.981481934E-1,1.168769531E0,2.300266571E0,2.672949572E0
5.053885917E0,-1.113684082E0,1.368603973E0,1.809586945E0,2.527444160E0
5.063853917E0,-1.453178101E0,1.692530365E0,1.184337158E0,2.525676173E0
5.073821917E0,-1.633852386E0,2.055375824E0,4.962181091E-1,2.672129452E0
5.083789917E0,-1.731449432E0,2.378703461E0,-1.083746338E-1,2.944128454E0
5.093758917E0,-1.864373016E0,2.534679108E0,-6.948550415E-1,3.222314145E0
5.103726917E0,-2.144290924E0,2.634671173E0,-1.230740662E0,3.613059415E0
5.113694917E0,-2.378553772E0,2.807711334E0,-1.586401062E0,4.007172234E0
5.123663917E0,-2.533331909E0,2.963686981E0,-1.754950562E0,4.275635924E0
5.133631917E0,-2.653681641E0,3.059936829E0,-1.956880646E0,4.498290954E0
5.143599917E0,-2.735860748E0,3.014281769E0,-2.276316376E0,4.663951635E0
5.153567917E0,-2.960094452E0,2.799478455E0,-2.477198639E0,4.768202164E0
5.163536917E0,-3.413501587E0,2.345771942E0,-2.546055450E0,4.861793645E0
5.173504917E0,-4.075724487E0,1.805545349E0,-2.424059143E0,5.074208001E0
5.183472917E0,-4.970863037E0,1.074914703E0,-2.309547272E0,5.585600196E0
5.193440917E0,-6.247558136E0,-2.212399292E-1,-2.272125092E0,6.651577422E0
5.203409917E0,-8.030799866E0,-2.556683350E0,-2.306852875E0,8.737960083E0
5.213377917E0,-1.044063858E1,-6.777007141E0,-2.443518677E0,1.268485488E1
5.223345917E0,-1.370385269E1,-1.319805450E1,-2.094893646E0,1.914086729E1
5.233314917E0,-1.888742340E1,-2.062680634E1,-7.960446167E-1,2.797916349E1
5.243282917E0,-2.410272812E1,-2.657842987E1,8.336164856E-1,3.588940448E1
5.253250917E0,-2.772130325E1,-3.027723816E1,1.053958282E0,4.106449358E1
5.263218917E0,-2.835613312E1,-3.184013809E1,1.169068909E-1,4.263658460E1
5.273187917E0,-2.772369827E1,-3.258214508E1,-7.140151978E-1,4.278679050E1
5.283155917E0,-2.632545593E1,-3.240700928E1,-3.617976379E-1,4.175373969E1
5.293123917E0,-2.404434952E1,-3.090009293E1,4.689747620E-1,3.915566912E1
5.303092917E0,-2.158975388E1,-2.941757584E1,1.450334015E0,3.651868986E1
5.313060917E0,-1.817146225E1,-2.783252197E1,1.901196442E0,3.329363104E1
5.323028917E0,-1.485421051E1,-2.586112152E1,7.955955505E-1,2.983417752E1
5.332996917E0,-1.207748474E1,-2.298739746E1,-1.789079590E0,2.602857825E1
5.342965917E0,-1.000818787E1,-1.937645645E1,-5.251080322E0,2.243177954E1
5.352933917E0,-9.079219666E0,-1.564965637E1,-8.384664001E0,1.994107732E1
5.362901917E0,-8.668324127E0,-1.148396896E1,-1.035830978E1,1.772895846E1
5.372869917E0,-8.553363190E0,-7.178322601E0,-1.107172623E1,1.572486753E1
5.382838917E0,-8.253536682E0,-3.300785980E0,-1.064586182E1,1.386904574E1
5.392806917E0,-7.776778107E0,-1.008901978E-1,-9.147178345E0,1.200663684E1
5.402774917E0,-7.174430695E0,2.038460999E0,-6.903045044E0,1.016266746E1
5.412742917E0,-6.670728149E0,3.046913910E0,-4.346062317E0,8.524702697E0
5.422711917E0,-6.187682648E0,3.451223145E0,-1.864522705E0,7.326308938E0
5.432679917E0,-5.389692078E0,3.599864044E0,-9.759704590E-2,6.482077369E0
5.442647917E0,-4.228556671E0,3.638633423E0,1.042731628E0,5.675176998E0
5.452616917E0,-2.906655579E0,3.630250854E0,1.472338257E0,4.878027046E0
5.462584917E0,-1.803599396E0,3.458707581E0,1.315614166E0,4.116608986E0
5.472552917E0,-1.042432251E0,3.007096710E0,8.279283142E-1,3.288580380E0
5.482520917E0,-5.451663208E-1,2.402803345E0,2.737806702E-1,2.479037331E0
5.492489917E0,-2.339634705E-1,1.923350372E0,2.365081787E-2,1.937672553E0
5.502457917E0,-2.278262329E-1,1.674418030E0,1.640588379E-1,1.697791458E0
5.512425917E0,-5.530998230E-1,1.601968689E0,5.074447632E-1,1.769102395E0
5.522393417E0,-9.294172668E-1,1.662293243E0,8.625064087E-1,2.090682326E0
5.532362417E0,-1.053060150E0,1.849104767E0,1.253792725E0,2.469842164E0
5.542330417E0,-1.023721161E0,2.111509094E0,1.635798340E0,2.860474065E0
5.552298417E0,-9.484277344E-1,2.415676575E0,1.877994690E0,3.203415761E0
5.562267417E0,-8.184979248E-1,2.798730011E0,1.998643799E0,3.535166978E0
5.572235417E0,-7.837701416E-1,3.253484344E0,2.038760376E0,3.918673230E0
5.582203417E0,-9.095086670E-1,3.726351013E0,2.018702087E0,4.334519121E0
5.592171417E0,-1.122515717E0,4.122577057E0,1.907633057E0,4.679182301E0
5.602140417E0,-1.247356110E0,4.375700684E0,1.608105927E0,4.825832406E0
5.612108417E0,-1.356928253E0,4.412973175E0,1.193468170E0,4.768642658E0
5.622076417E0,-1.477277985E0,4.299958191E0,8.295748901E-1,4.621708038E0
5.632044417E0,-1.659149780E0,4.196822662E0,7.756869507E-1,4.579059805E0
5.642013417E0,-2.032772827E0,4.039200439E0,1.090632019E0,4.651535634E0
5.651981417E0,-2.480342102E0,3.897145844E0,1.398392029E0,4.826524934E0
5.661949417E0,-3.190465393E0,3.781735840E0,1.447190552E0,5.155090288E0
5.671918417E0,-4.122127991E0,3.754342804E0,1.221609650E0,5.707833144E0
5.681886417E0,-5.175786896E0,3.812571716E0,6.381230164E-1,6.460005733E0
5.691854417E0,-6.812034302E0,3.469934235E0,-1.323248291E-1,7.646029347E0
5.701822417E0,-8.889863434E0,2.269131317E0,-1.178499298E0,9.250269693E0
5.711791417E0,-1.139430542E1,-3.242257690E-1,-2.605781250E0,1.169296431E1
5.721759417E0,-1.420081924E1,-4.706662445E0,-3.795656891E0,1.543447277E1
5.731727417E0,-1.788585617E1,-1.077654007E1,-3.991599426E0,2.125959860E1
5.741696417E0,-2.209420486E1,-1.768961426E1,-2.737207947E0,2.843534154E1
5.751664417E0,-2.656301193E1,-2.415092789E1,-9.562115479E-1,3.591344123E1
5.761632417E0,-2.965138962E1,-2.895937866E1,5.409750366E-1,4.145049062E1
5.771600417E0,-2.968746460E1,-3.194387238E1,4.992118835E-1,4.361199089E1
5.781569417E0,-2.703004074E1,-3.314048401E1,-1.543739777E0,4.279366677E1
5.791537417E0,-2.241693375E1,-3.377022446E1,-4.814138947E0,4.081816890E1
5.801505417E0,-1.764874924E1,-3.376648224E1,-7.464078369E0,3.882481344E1
5.811474417E0,-1.466620148E1,-3.341680939E1,-8.255782013E0,3.741575273E1
5.821442417E0,-1.407298508E1,-3.372247375E1,-6.830595703E0,3.717406600E1
5.831410417E0,-1.414797913E1,-3.323074631E1,-3.463647308E0,3.628284259E1
5.841378417E0,-1.382525024E1,-3.113675079E1,-7.614665222E-1,3.407659938E1
5.851347417E0,-1.258597733E1,-2.740635818E1,2.531236267E-1,3.015923351E1
5.861315417E0,-1.129087051E1,-2.283276901E1,3.215313721E-1,2.547395690E1
5.871283417E0,-1.003887405E1,-1.823912155E1,8.666976929E-2,2.081951150E1
5.881251417E0,-8.380472717E0,-1.403735916E1,-4.123924255E-1,1.635389381E1
5.891220417E0,-6.401587830E0,-1.028571075E1,-1.152752838E0,1.216984024E1
5.901188417E0,-4.680017853E0,-7.069349213E0,-1.915566559E0,8.691815727E0
5.911156417E0,-3.514092407E0,-4.371659088E0,-2.647245026E0,6.202270137E0
5.921125417E0,-2.869532776E0,-2.034718781E0,-3.430865479E0,4.913770121E0
5.931093417E0,-2.292482758E0,1.254391479E-1,-3.988605652E0,4.602193740E0
5.941061417E0,-1.583407288E0,2.091750183E0,-4.343966675E0,5.074706291E0
5.951029417E0,-6.785389709E-1,3.701502686E0,-4.606670380E0,5.948356853E0
5.960998417E0,2.351609802E-1,4.670138397E0,-4.945565643E0,6.806181960E0
5.970966417E0,8.460406494E-1,4.923561401E0,-5.210215302E0,7.218281315E0
5.980934417E0,1.237925720E0,4.445605316E0,-5.258415070E0,6.996198665E0
5.990902417E0,1.373693390E0,3.429069214E0,-5.015470276E0,6.229004037E0
6.000871417E0,1.393452301E0,2.468516693E0,-4.486320648E0,5.306821736E0
6.010839417E0,1.413360901E0,1.909129944E0,-3.639681244E0,4.346222007E0
6.020807417E0,1.099763031E0,1.573378143E0,-2.699935455E0,3.312800774E0
6.030776417E0,5.872288513E-1,1.566193085E0,-1.818867645E0,2.471047959E0
6.040744417E0,1.829196167E-1,1.727707214E0,-1.231788483E0,2.129726431E0
6.050712417E0,-1.525328064E-1,1.944755859E0,-8.146060181E-1,2.113983106E0
6.060680417E0,-5.749543762E-1,2.131717072E0,-4.070036316E-1,2.245092908E0
6.070649417E0,-9.912387085E-1,2.263892212E0,-4.670288086E-2,2.471829946E0
6.080617417E0,-1.413211212E0,2.341580658E0,1.884580994E-1,2.741474487E0
6.090585417E0,-1.823957062E0,2.326911163E0,3.312611389E-1,2.975074599E0
6.100554417E0,-2.246528320E0,2.293530579E0,4.504133606E-1,3.241919833E0
6.110522417E0,-2.639760590E0,2.261197815E0,5.694158936E-1,3.522156440E0
6.120490417E0,-3.002306671E0,2.239942017E0,6.456074524E-1,3.801051771E0
6.130458417E0,-3.397484894E0,2.224374390E0,6.102809143E-1,4.106481197E0
6.140427417E0,-3.684887238E0,2.235750732E0,5.051994324E-1,4.339608480E0
6.150395417E0,-3.940854950E0,2.220482483E0,3.185375977E-1,4.534572350E0
6.160363417E0,-4.186793518E0,2.227966919E0,-1.481918335E-2,4.742709791E0
6.170331417E0,-4.299209747E0,2.174827423E0,-3.495231628E-1,4.830656810E0
6.180300417E0,-4.377646637E0,1.961820374E0,-6.324348450E-1,4.838646824E0
6.190268417E0,-4.535119171E0,1.651066589E0,-8.810678101E-1,4.906078604E0
6.200236417E0,-4.955295410E0,1.326541443E0,-1.122366028E0,5.251130383E0
6.210205417E0,-5.744005280E0,8.041278076E-1,-1.459614716E0,5.980860582E0
6.220173417E0,-6.724017334E0,-1.496887207E-4,-1.891316986E0,6.984947321E0
6.230141417E0,-7.914940796E0,-1.149759064E0,-2.401605835E0,8.350805009E0
6.240109417E0,-9.388626251E0,-2.889291687E0,-2.900218964E0,1.024234247E1
6.250078417E0,-1.139400604E1,-5.508395233E0,-3.010689240E0,1.300884474E1
6.260046417E0,-1.409843216E1,-9.606872406E0,-2.698139191E0,1.727245616E1
6.270014417E0,-1.661410080E1,-1.416549271E1,-1.564845886E0,2.188922730E1
6.279982417E0,-1.975187576E1,-1.834435272E1,-2.549198914E-1,2.695768642E1
6.289951417E0,-2.348900436E1,-2.261646881E1,8.255332947E-1,3.261777878E1
6.299919417E0,-2.497077301E1,-2.568089630E1,1.814676361E0,3.586559619E1
6.309887417E0,-2.504187515E1,-2.709320938E1,2.736459503E0,3.699494177E1
6.319856417E0,-2.449386475E1,-2.835433685E1,3.739972687E0,3.765508232E1
6.329824417E0,-2.335503296E1,-2.865940247E1,4.588558044E0,3.725417801E1
6.339792417E0,-2.182476517E1,-2.772220139E1,4.994214478E0,3.563401468E1
6.349760417E0,-2.077649506E1,-2.664773575E1,5.208568726E0,3.418908825E1
6.359729417E0,-2.038356216E1,-2.547776871E1,5.596262512E0,3.310474979E1
6.369697417E0,-1.999107834E1,-2.394989594E1,6.005212097E0,3.176953416E1
6.379665417E0,-1.916434753E1,-2.217593491E1,5.599256287E0,2.983950362E1
6.389634417E0,-1.771491165E1,-1.990156448E1,4.445006561E0,2.701200561E1
6.399602417E0,-1.610156662E1,-1.719414459E1,3.084036713E0,2.375732178E1
6.409570417E0,-1.475990662E1,-1.443298645E1,1.758094025E0,2.071851432E1
6.419538417E0,-1.295690598E1,-1.150297943E1,4.977149963E-1,1.733342633E1
6.429507417E0,-1.100481537E1,-8.924740906E0,-7.845185852E-1,1.419057543E1
6.439475417E0,-9.388775940E0,-6.609954529E0,-1.955084381E0,1.164744468E1
6.449443417E0,-7.819888458E0,-4.370162201E0,-2.679428101E0,9.350310589E0
6.459412417E0,-6.392157440E0,-2.167492676E0,-2.978057098E0,7.377433519E0
6.469380417E0,-5.426964569E0,5.119354248E-2,-3.176095276E0,6.288254640E0
6.479348417E0,-4.716392212E0,2.224524078E0,-3.394640808E0,6.222254341E0
6.489316417E0,-4.347559204E0,3.944297791E0,-4.156855774E0,7.192927500E0
6.499285417E0,-4.041894836E0,4.977449341E0,-5.991440735E0,8.775493028E0
6.509253417E0,-3.442690887E0,5.331313477E0,-9.029523010E0,1.103663489E1
6.519221833E0,-2.492317200E0,5.151237946E0,-1.023706192E1,1.172792966E1
6.529189833E0,-1.934277649E0,4.547094269E0,-8.396938477E0,9.743001185E0
6.539158833E0,-1.173409882E0,3.715124359E0,-6.449488220E0,7.534914602E0
6.549126833E0,-6.406677246E-1,2.971770172E0,-4.903054047E0,5.769039094E0
6.559094833E0,3.314108276E-1,2.325563965E0,-4.152365112E0,4.770766911E0
6.569063833E0,1.263672180E0,1.838327179E0,-3.588787079E0,4.225601365E0
6.579031833E0,1.957629089E0,1.632355499E0,-2.928659821E0,3.882517801E0
6.588999833E0,2.353406067E0,1.766775970E0,-2.162253571E0,3.651760938E0
6.598967833E0,2.468666382E0,2.155667267E0,-1.414558411E0,3.569620507E0
6.608936833E0,2.165995789E0,2.684816895E0,-7.214996338E-1,3.524250450E0
6.618904833E0,1.605112152E0,3.183729401E0,-1.965412903E-1,3.570874738E0
6.628872833E0,8.779243469E-1,3.525768127E0,1.731898499E-1,3.637552305E0
6.638841833E0,9.475296021E-2,3.672014008E0,2.839595032E-1,3.684195705E0
6.648809833E0,-5.562432861E-1,3.685935059E0,2.948867798E-2,3.727786667E0
6.658777833E0,-9.126521301E-1,3.544329529E0,-4.968168640E-1,3.693512247E0
6.668745833E0,-1.110690308E0,3.350332947E0,-1.045426025E0,3.681206241E0
6.678714833E0,-1.152154083E0,3.221900024E0,-1.523681488E0,3.745624658E0
6.688682833E0,-1.147663422E0,3.036884766E0,-1.982926483E0,3.804181626E0
6.698650833E0,-1.187779999E0,2.765050049E0,-2.371518402E0,3.831503964E0
6.708618833E0,-1.369053040E0,2.395468597E0,-2.619402924E0,3.804451038E0
6.718587833E0,-1.727108459E0,1.995051270E0,-2.668351135E0,3.752763113E0
6.728555833E0,-2.170636139E0,1.665436707E0,-2.458786926E0,3.678447202E0
6.738523833E0,-2.696342926E0,1.468446350E0,-2.232307892E0,3.796024023E0
6.748492833E0,-3.508853302E0,1.150208130E0,-2.114802246E0,4.255281281E0
6.758460833E0,-4.502487030E0,3.746708679E-1,-2.047592010E0,4.960383126E0
6.768428833E0,-5.582491150E0,-8.000862122E-1,-2.097138977E0,6.016837814E0
6.778396833E0,-7.237449646E0,-2.816093903E0,-2.369572449E0,8.119478791E0
6.788365833E0,-9.172475739E0,-5.990542603E0,-2.733615417E0,1.129130484E1
6.798333833E0,-1.186657333E1,-1.089209976E1,-3.240012360E0,1.643018807E1
6.808301833E0,-1.574036774E1,-1.738380020E1,-3.270848236E0,2.367813620E1
6.818270833E0,-2.037577835E1,-2.380858978E1,-2.307152252E0,3.142203434E1
6.828238833E0,-2.410362625E1,-2.885878784E1,-2.531236267E-1,3.760157584E1
6.838206833E0,-2.567281311E1,-3.108660507E1,2.515369263E0,4.039551250E1
6.848174833E0,-2.742731461E1,-3.233800278E1,4.338577881E0,4.262425680E1
6.858143833E0,-2.788386520E1,-3.263393738E1,5.679040375E0,4.329821367E1
6.868111833E0,-2.646197205E1,-3.036809921E1,7.009174347E0,4.088503320E1
6.878079833E0,-2.539304489E1,-2.806813202E1,7.401658173E0,3.856697172E1
6.888048833E0,-2.459759903E1,-2.660941544E1,6.912475433E0,3.689017734E1
6.898016833E0,-2.364662659E1,-2.552986038E1,5.583838348E0,3.524366568E1
6.907984833E0,-2.193837891E1,-2.442081665E1,3.706143036E0,3.303640796E1
6.917952833E0,-1.920371567E1,-2.284893539E1,1.687590637E0,2.989489097E1
6.927921833E0,-1.631262772E1,-2.076332245E1,-3.622467041E-2,2.640489906E1
6.937889833E0,-1.345821350E1,-1.806009384E1,-1.145118713E0,2.255220160E1
6.947857833E0,-1.069346283E1,-1.508622803E1,-1.811981964E0,1.858030414E1
6.957825833E0,-8.557404785E0,-1.221325241E1,-2.346670074E0,1.509634299E1
6.967794833E0,-7.056026917E0,-9.408534851E0,-2.775677948E0,1.208356040E1
6.977762833E0,-5.859564972E0,-6.676416321E0,-3.017275543E0,9.381523770E0
6.987730833E0,-5.025349731E0,-4.195026398E0,-3.165916443E0,7.271548207E0
6.997699833E0,-4.665647736E0,-1.974693604E0,-3.201841736E0,5.993285753E0
7.007667833E0,-4.515060883E0,-4.041595459E-3,-3.274740143E0,5.577608279E0
7.017635833E0,-4.362079010E0,1.813927917E0,-3.603606262E0,5.941720784E0
7.027603833E0,-4.386029205E0,3.306025085E0,-4.087699585E0,6.846629970E0
7.037572833E0,-4.261937256E0,4.354145508E0,-4.433630219E0,7.535235178E0
7.047540833E0,-3.831881561E0,4.890779572E0,-4.795577545E0,7.848605297E0
7.057508833E0,-3.080444183E0,4.999603271E0,-5.098697205E0,7.777009864E0
7.067477833E0,-2.062111816E0,4.756508789E0,-5.296885071E0,7.411725336E0
7.077445833E0,-1.111738129E0,4.185895386E0,-5.120551758E0,6.706543980E0
7.087413833E0,-4.499642944E-1,3.380719757E0,-4.670437775E0,5.783141270E0
7.097381833E0,1.279838562E-1,2.703228607E0,-4.131259003E0,4.938737259E0
7.107350833E0,7.173083496E-1,2.244881744E0,-3.510350189E0,4.228070927E0
7.117318833E0,1.091530151E0,2.028431854E0,-2.898871765E0,3.702624930E0
7.127286833E0,1.122964783E0,2.053130493E0,-2.300116882E0,3.281300413E0
7.137254833E0,9.660910034E-1,2.298919373E0,-1.781146088E0,3.064448318E0
7.147223833E0,5.776487732E-1,2.723885651E0,-1.448837128E0,3.138846948E0
7.157191833E0,1.447489929E-1,3.227887573E0,-1.098715210E0,3.412826625E0
7.167159833E0,-3.293151855E-1,3.570674744E0,-9.090596008E-1,3.699264248E0
7.177128833E0,-8.984317017E-1,3.748504944E0,-8.659492493E-1,3.950738784E0
7.187096833E0,-1.315464478E0,3.780238953E0,-8.449928284E-1,4.090802636E0
7.197064833E0,-1.684596863E0,3.748504944E0,-8.939410400E-1,4.205744463E0
7.207032833E0,-1.921404419E0,3.618575134E0,-9.310638428E-1,4.201518871E0
7.217001833E0,-1.989363098E0,3.437601471E0,-9.614506531E-1,4.086447940E0
7.226969833E0,-2.015558624E0,3.194057922E0,-9.830058289E-1,3.902663583E0
7.236937833E0,-2.002984772E0,2.928210754E0,-9.687854004E-1,3.677623060E0
7.246906833E0,-2.005379791E0,2.699037323E0,-9.773176575E-1,3.501642526E0
7.256874833E0,-2.030826874E0,2.501597900E0,-1.027463379E0,3.382001011E0
7.266842833E0,-2.034120026E0,2.312241669E0,-1.060843964E0,3.257222088E0
7.276810833E0,-2.178719330E0,2.027982788E0,-1.132844238E0,3.184786991E0
7.286779833E0,-2.567311249E0,1.648372192E0,-1.253792725E0,3.298516959E0
7.296747833E0,-3.233575745E0,1.159339142E0,-1.363664246E0,3.695897660E0
7.306715833E0,-4.262985077E0,4.460723877E-1,-1.705702972E0,4.613181654E0
7.316684833E0,-5.830225983E0,-7.879614258E-1,-2.351759491E0,6.335865444E0
7.326652833E0,-7.830666046E0,-2.670746155E0,-3.310964813E0,8.911492790E0
7.336620833E0,-1.057984909E1,-5.661227417E0,-4.232747955E0,1.272394820E1
7.346588833E0,-1.551358932E1,-1.130329468E1,-4.950355682E0,1.982276332E1
7.356557833E0,-2.362267639E1,-2.049073929E1,-5.311853943E0,3.171934786E1
7.366525833E0,-3.131907166E1,-2.865730682E1,-3.702251129E0,4.261258203E1
7.376493833E0,-3.197051697E1,-3.137685150E1,1.423539734E-1,4.479554699E1
7.386462833E0,-3.055027039E1,-3.329092117E1,3.223845978E0,4.529898052E1
7.396430833E0,-2.990556107E1,-3.413456680E1,5.087470551E0,4.566610986E1
7.406398833E0,-2.723616211E1,-3.150453598E1,8.285121002E0,4.246160082E1
7.416366833E0,-2.551713684E1,-2.863111130E1,1.005025040E1,3.964684527E1
7.426335833E0,-2.498963379E1,-2.630928955E1,9.513466644E0,3.751221882E1
7.436303833E0,-2.316582642E1,-2.360651001E1,7.474855957E0,3.390864639E1
7.446271833E0,-2.012085846E1,-2.108769791E1,4.001029816E0,2.942020033E1
7.456240833E0,-1.717438568E1,-1.920431442E1,-8.352630615E-2,2.576377675E1
7.466208833E0,-1.453672073E1,-1.729982483E1,-3.666176147E0,2.289194261E1
7.476176833E0,-1.241428436E1,-1.538021667E1,-6.248456268E0,2.072941695E1
7.486144833E0,-1.169009033E1,-1.313249084E1,-7.939639435E0,1.929140747E1
7.496113833E0,-1.146406036E1,-1.057850189E1,-8.717571716E0,1.786967932E1
7.506081833E0,-1.060409866E1,-7.385042725E0,-8.781638489E0,1.562379400E1
7.516049833E0,-9.433233490E0,-4.262386322E0,-8.220156097E0,1.321835079E1
7.526017917E0,-8.465046844E0,-1.591640167E0,-7.458839264E0,1.139406072E1
7.535986917E0,-8.171357574E0,4.960684204E-1,-7.149282990E0,1.086873570E1
7.545954917E0,-8.523126068E0,2.101030884E0,-7.205565948E0,1.135685649E1
7.555922917E0,-8.666228485E0,3.609144745E0,-7.132817230E0,1.179010278E1
7.565891917E0,-8.300688629E0,4.889432373E0,-6.823260956E0,1.180528995E1
7.575859917E0,-7.515122223E0,5.745053101E0,-6.245612183E0,1.133535922E1
7.585827917E0,-6.634204102E0,6.039640503E0,-5.495971069E0,1.052119858E1
7.595795917E0,-5.748645630E0,5.687123566E0,-4.671934662E0,9.339018927E0
7.605764917E0,-4.905000000E0,5.041965179E0,-3.752696228E0,7.972651181E0
7.615732917E0,-4.171974335E0,4.293820953E0,-2.780917053E0,6.601194429E0
7.625700917E0,-3.619024200E0,3.583248596E0,-1.933379517E0,5.447473086E0
7.635669917E0,-3.172951813E0,3.058140564E0,-1.219663696E0,4.572463936E0
7.645637917E0,-2.723586273E0,2.839744720E0,-6.146218872E-1,3.982440499E0
7.655605917E0,-2.293530579E0,2.910547485E0,-3.643423462E-1,3.723481506E0
7.665573917E0,-1.913021851E0,3.094814301E0,-3.263214111E-1,3.652945910E0
7.675542917E0,-1.665137329E0,3.378324738E0,-2.812651062E-1,3.776886339E0
7.685510917E0,-1.472637634E0,3.704346771E0,-2.513273621E-1,3.994247369E0
7.695478917E0,-1.366358643E0,4.004622345E0,-2.978805542E-1,4.241776620E0
7.705447917E0,-1.387165375E0,4.200415192E0,-5.418731689E-1,4.456606567E0
7.715415917E0,-1.386865997E0,4.248764648E0,-7.810757446E-1,4.537122177E0
7.725383917E0,-1.304986267E0,4.194577332E0,-9.485774231E-1,4.494136989E0
7.735351917E0,-1.164278870E0,4.060905304E0,-1.142873383E0,4.376374840E0
7.745320917E0,-9.481283569E-1,3.905079346E0,-1.312919769E0,4.227570271E0
7.755288917E0,-8.913963318E-1,3.837120667E0,-1.467847595E0,4.203886177E0
7.765256917E0,-8.173004150E-1,3.746708679E0,-1.741328888E0,4.211654329E0
7.775225917E0,-6.349795532E-1,3.734733582E0,-1.846410370E0,4.214340424E0
7.785193917E0,-4.272116089E-1,3.902085571E0,-1.682650909E0,4.270842499E0
7.795161917E0,-3.634442139E-1,4.131259003E0,-1.520538025E0,4.417174270E0
7.805129917E0,-6.146218872E-1,4.152065735E0,-1.470392303E0,4.447410871E0
7.815098917E0,-9.680369568E-1,3.953578491E0,-1.429227905E0,4.313997084E0
7.825066917E0,-1.492097168E0,3.683839417E0,-1.277144165E0,4.174700471E0
7.835034917E0,-2.182311859E0,3.325783997E0,-1.115630035E0,4.131338115E0
7.845002917E0,-2.958447876E0,2.794838104E0,-1.066831512E0,4.207334470E0
7.854971917E0,-4.047882385E0,1.889071655E0,-1.105002136E0,4.601627239E0
7.864939917E0,-5.917195129E0,3.842509460E-1,-1.051712952E0,6.022204507E0
7.874907917E0,-8.583300934E0,-2.075583801E0,-9.199868774E-1,8.878484042E0
7.884876917E0,-1.133667526E1,-6.115981750E0,-9.749226379E-1,1.291804602E1
7.894844917E0,-1.324460770E1,-1.114058304E1,-1.291663971E0,1.735513236E1
7.904812917E0,-1.811742462E1,-1.700957840E1,-1.390308838E0,2.488975273E1
7.914780917E0,-2.703168732E1,-2.400617889E1,-1.265618134E0,3.617472230E1
7.924749917E0,-3.415267914E1,-2.994373169E1,4.183799744E-1,4.542254508E1
7.934717917E0,-3.715558456E1,-3.321757370E1,2.984942780E0,4.992849437E1
7.944685917E0,-3.867507477E1,-3.456746658E1,4.825515289E0,5.209565003E1
7.954654917E0,-3.682866440E1,-3.154719727E1,5.776038666E0,4.883583520E1
7.964622917E0,-3.306923218E1,-2.677242645E1,5.714366913E0,4.293007016E1
7.974590917E0,-3.115142029E1,-2.417951843E1,4.380790100E0,3.967683732E1
7.984558917E0,-2.924812820E1,-2.297647018E1,2.602637787E0,3.728464710E1
7.994527917E0,-2.554018890E1,-2.253878036E1,8.116122437E-1,3.407281297E1
8.004495917E0,-2.072245743E1,-2.223805573E1,-1.131047974E0,3.041760401E1
8.014463917E0,-1.606189911E1,-2.128214355E1,-2.889291687E0,2.681906493E1
8.024432917E0,-1.207688599E1,-1.931583252E1,-3.983216858E0,2.312614489E1
8.034400917E0,-8.800798645E0,-1.610875168E1,-4.114044800E0,1.881146730E1
8.044368917E0,-6.610702972E0,-1.240305771E1,-3.530258789E0,1.449137542E1
8.054336917E0,-5.604944458E0,-8.869954834E0,-2.624642029E0,1.081574070E1
8.064305917E0,-5.393134918E0,-5.917195129E0,-1.666933594E0,8.177882981E0
8.074273917E0,-5.449417877E0,-3.609593811E0,-9.047186279E-1,6.598775529E0
8.084241917E0,-5.428162079E0,-1.872007141E0,-5.116360474E-1,5.764644459E0
8.094210917E0,-5.266947327E0,-3.427871704E-1,-5.167254639E-1,5.303323712E0
8.104178917E0,-5.066514130E0,8.934919739E-1,-9.461824036E-1,5.230980259E0
8.114146917E0,-4.818779297E0,1.744622040E0,-1.702709198E0,5.400329489E0
8.124114917E0,-4.443659363E0,2.214794312E0,-2.508782959E0,5.562860263E0
8.134083917E0,-3.872447205E0,2.423759766E0,-3.220253448E0,5.589319371E0
8.144051917E0,-3.057242432E0,2.555635529E0,-3.825444946E0,5.523769843E0
8.154019917E0,-2.051783295E0,2.636168060E0,-4.358636169E0,5.491530387E0
8.163988917E0,-9.345066833E-1,2.512674866E0,-4.686753845E0,5.399305449E0
8.173956917E0,-1.122665405E-2,2.262545013E0,-4.731810150E0,5.244927385E0
8.183924917E0,7.803273010E-1,2.070793762E0,-4.471052399E0,4.988728000E0
8.193892917E0,1.260678406E0,1.976190491E0,-3.808679810E0,4.472212069E0
8.203861917E0,1.495240631E0,1.870210876E0,-2.852917328E0,3.724589984E0
8.213829917E0,1.604064331E0,1.784139862E0,-2.030377808E0,3.143025846E0
8.223797917E0,1.457369385E0,1.724713440E0,-1.357676697E0,2.634738694E0
8.233766917E0,1.251547394E0,1.649719391E0,-8.812174988E-1,2.250442007E0
8.243734917E0,1.082548828E0,1.566492462E0,-7.532336426E-1,2.047723497E0
8.253702917E0,8.411009216E-1,1.547781372E0,-8.164022827E-1,1.941543361E0
8.263670917E0,4.367916870E-1,1.704655151E0,-8.867559814E-1,1.970525903E0
8.273639917E0,8.083190918E-3,1.974992981E0,-1.081950073E0,2.251949949E0
8.283607917E0,-3.808081055E-1,2.272125092E0,-1.384321289E0,2.687733744E0
8.293575917E0,-5.451663208E-1,2.512824554E0,-1.793121185E0,3.134769073E0
8.303544917E0,-1.672023010E-1,2.720592499E0,-2.375559998E0,3.615641776E0
8.313512917E0,2.814147949E-2,2.678679657E0,-3.193608856E0,4.168363489E0
8.323480917E0,3.547622681E-2,2.447859650E0,-3.973187714E0,4.666850762E0
8.333448917E0,6.930587769E-2,2.262694702E0,-4.551734619E0,5.083589152E0
8.343417917E0,-1.445993042E-1,2.105371857E0,-4.911286926E0,5.345487713E0
8.353385917E0,-6.023474121E-1,1.873354340E0,-4.981341248E0,5.355934980E0
8.363353917E0,-1.330133972E0,1.332079926E0,-4.890629883E0,5.240415438E0
8.373322917E0,-2.231409760E0,4.837939453E-1,-4.515809326E0,5.060215407E0
8.383290917E0,-3.011437683E0,-2.619552612E-1,-3.746259613E0,4.813713594E0
8.393258917E0,-4.226760406E0,-1.113684082E0,-3.114573212E0,5.367155863E0
8.403226917E0,-5.866899719E0,-2.562072144E0,-2.807411957E0,6.990442610E0
8.413195917E0,-7.719896393E0,-4.777764587E0,-2.646047516E0,9.456500527E0
8.423163917E0,-9.356443176E0,-7.307503967E0,-2.289788361E0,1.209073091E1
8.433131917E0,-1.134520752E1,-9.962233429E0,-1.992656250E0,1.522926484E1
8.443100917E0,-1.406475220E1,-1.283206558E1,-1.732497253E0,1.911754974E1
8.453068917E0,-1.671499100E1,-1.508832367E1,-9.880952454E-1,2.253940477E1
8.463036917E0,-1.878189285E1,-1.608884308E1,6.306385803E-1,2.473879697E1
8.473004917E0,-2.084490280E1,-1.695554077E1,2.355052643E0,2.697307192E1
8.482973917E0,-2.364527939E1,-1.794603104E1,3.589086456E0,2.990051519E1
8.492941917E0,-2.615196671E1,-1.861154709E1,4.408781891E0,3.239988280E1
8.502909917E0,-2.771292068E1,-1.883143982E1,4.570894775E0,3.381600476E1
8.512878917E0,-2.749287827E1,-1.868384674E1,4.081262970E0,3.349031490E1
8.522847917E0,-2.582759125E1,-1.833103043E1,3.558999023E0,3.187095261E1
8.532815917E0,-2.432965622E1,-1.867860764E1,3.071612549E0,3.082624464E1
8.542783917E0,-2.306179276E1,-1.969768845E1,2.627486115E0,3.044255079E1
8.552752917E0,-2.145398621E1,-2.054941727E1,2.216291199E0,2.979033435E1
8.562720917E0,-1.948019073E1,-2.004556503E1,2.082020416E0,2.802922256E1
8.572688917E0,-1.738903931E1,-1.818673050E1,2.054028625E0,2.524588853E1
8.582657917E0,-1.596310455E1,-1.564127380E1,1.957180023E0,2.243436442E1
8.592625917E0,-1.591744949E1,-1.283401154E1,1.874701538E0,2.053269481E1
8.602593917E0,-1.655841660E1,-9.815837860E0,1.969753876E0,1.934972257E1
8.612561917E0,-1.693174026E1,-6.667285309E0,2.034269714E0,1.831050996E1
8.622530917E0,-1.662008835E1,-3.371289368E0,1.982627106E0,1.707406627E1
8.632498917E0,-1.565744019E1,-1.134640503E-1,1.870360565E0,1.576916472E1
8.642466917E0,-1.419108948E1,2.702629852E0,1.644629974E0,1.453946479E1
8.652435917E0,-1.267519180E1,4.579576721E0,1.189276886E0,1.352950072E1
8.662403917E0,-1.128772705E1,5.222040710E0,5.671705627E-1,1.245006721E1
8.672371917E0,-9.769584045E0,4.885241089E0,-1.459465027E-1,1.092390284E1
8.682339917E0,-7.973319397E0,4.158801727E0,-9.898915100E-1,9.047062463E0
8.692308917E0,-6.210135956E0,3.397484894E0,-1.784888306E0,7.300309477E0
8.702276917E0,-4.513414307E0,2.751727753E0,-2.305206299E0,5.766878741E0
8.712244917E0,-2.850222931E0,2.332150269E0,-2.705024872E0,4.569448018E0
8.722213917E0,-1.373843079E0,2.157014465E0,-3.083437958E0,4.005963785E0
8.732181917E0,-2.486329651E-1,2.188000031E0,-3.309617615E0,3.975264927E0
8.742149917E0,5.167254639E-1,2.439776459E0,-3.364403687E0,4.187926282E0
8.752117917E0,8.440946960E-1,3.006797333E0,-3.134781189E0,4.424949622E0
8.762086917E0,9.645941162E-1,3.652255096E0,-2.783761139E0,4.692412511E0
8.772054917E0,7.770341492E-1,4.083657990E0,-2.420316925E0,4.810195283E0
8.782022917E0,3.589535522E-1,4.176614685E0,-2.205513611E0,4.736797248E0
8.791991917E0,-1.757345581E-1,4.370910645E0,-2.094444580E0,4.849993876E0
8.801959917E0,-5.034031677E-1,4.598287811E0,-2.175725555E0,5.111892726E0
8.811927917E0,-8.657995605E-1,4.648882599E0,-2.455344086E0,5.328267343E0
8.821895917E0,-1.062939606E0,4.674629059E0,-2.676434326E0,5.490473399E0
8.831864917E0,-1.089284821E0,4.671485596E0,-2.894231415E0,5.602311538E0
8.841832917E0,-1.013991394E0,4.587061157E0,-3.060086517E0,5.606553139E0
8.851800917E0,-1.096619568E0,4.444557495E0,-3.106040955E0,5.532102332E0
8.861769917E0,-1.502575378E0,4.097129974E0,-3.124752045E0,5.367334733E0
8.871737917E0,-1.939067688E0,3.720363464E0,-3.062631226E0,5.194304364E0
8.881705917E0,-2.245630188E0,3.358865204E0,-2.839894409E0,4.938606145E0
8.891673917E0,-2.489622803E0,3.018323364E0,-2.693947906E0,4.750352929E0
8.901642917E0,-2.877915344E0,2.520758057E0,-2.770887909E0,4.723816012E0
8.911610917E0,-3.285817108E0,1.877845001E0,-2.856060791E0,4.741305639E0
8.921578917E0,-3.763773193E0,1.297352142E0,-2.928510132E0,4.942194131E0
8.931547917E0,-4.643793182E0,6.062393188E-1,-3.292104034E0,5.724534060E0
8.941515917E0,-6.480623474E0,-7.921527100E-1,-4.077221375E0,7.697384014E0
8.951483917E0,-9.253157959E0,-3.106789398E0,-5.018464050E0,1.097533845E1
8.961451917E0,-1.256127869E1,-6.587800598E0,-5.860463104E0,1.534698233E1
8.971420917E0,-1.576162354E1,-1.106439148E1,-5.903723145E0,2.014208237E1
8.981388917E0,-1.798375259E1,-1.552032532E1,-4.863236847E0,2.424761695E1
8.991356917E0,-2.007684998E1,-1.912587753E1,-3.751798096E0,2.798133459E1
9.001325917E0,-2.095133148E1,-2.134606064E1,-2.783761139E0,3.003933957E1
9.011293917E0,-2.190140579E1,-2.294907715E1,-1.867666168E0,3.177766345E1
9.021261917E0,-2.457544510E1,-2.563524124E1,-1.757345581E-1,3.551265940E1
9.031230917E0,-2.672317886E1,-2.823757965E1,2.684517517E0,3.897044813E1
9.041198917E0,-2.795107544E1,-2.937192078E1,5.547613678E0,4.092368954E1
9.051166917E0,-2.837005417E1,-2.974135254E1,7.180567932E0,4.172491558E1
9.061134917E0,-2.776995209E1,-2.961711090E1,8.231981506E0,4.142594618E1
9.071103917E0,-2.638473267E1,-2.830628677E1,9.423054657E0,3.982705045E1
9.081071917E0,-2.447096237E1,-2.645343979E1,1.017703674E1,3.744575481E1
9.091039917E0,-2.217383926E1,-2.359258896E1,1.025682083E1,3.396309431E1
9.101008917E0,-1.988285339E1,-1.999826340E1,9.454638977E0,2.974304282E1
9.110976917E0,-1.822505081E1,-1.644704819E1,7.676336975E0,2.572127564E1
9.120944917E0,-1.669238800E1,-1.295795380E1,5.243296509E0,2.177238026E1
9.130912917E0,-1.482053055E1,-9.620643768E0,2.785407715E0,1.788752102E1
9.140881917E0,-1.289613235E1,-6.750512238E0,5.484594727E-1,1.456641524E1
9.150849917E0,-1.128907425E1,-4.413871307E0,-1.475781097E0,1.221078978E1
9.160817917E0,-9.718689880E0,-2.437531128E0,-3.014581146E0,1.046337376E1
9.170786917E0,-7.905360718E0,-4.983137512E-1,-4.133055267E0,8.934494419E0
9.180754917E0,-6.133944397E0,1.437610474E0,-5.088817749E0,8.098645802E0
9.190722917E0,-4.613855438E0,3.259621582E0,-5.777685242E0,8.080497609E0
9.200690917E0,-3.386108551E0,4.322561188E0,-6.206094360E0,8.286487407E0
9.210659917E0,-2.565065918E0,4.391567688E0,-6.154152374E0,7.983672173E0
9.220627917E0,-2.001338196E0,3.818858643E0,-5.590274963E0,7.059759916E0
9.230595917E0,-1.506317596E0,2.986140289E0,-4.853507080E0,5.894281763E0
9.240564917E0,-7.993377686E-1,2.212698669E0,-4.128863983E0,4.752104172E0
9.250532917E0,1.935475159E-1,1.692380676E0,-3.548820190E0,3.936462592E0
9.260500917E0,1.520088959E0,1.565594330E0,-3.223845978E0,3.892934489E0
9.270468917E0,2.552791443E0,1.570084991E0,-3.110830994E0,4.319627357E0
9.280437917E0,3.035537567E0,1.472637634E0,-2.919977875E0,4.461997390E0
9.290405917E0,3.174299011E0,1.412911835E0,-2.562072144E0,4.317025334E0
9.300373917E0,3.186723175E0,1.558558960E0,-2.091450806E0,4.118067156E0
9.310342917E0,3.107687531E0,2.006427612E0,-1.707199860E0,4.074064913E0
9.320310917E0,2.982398071E0,2.420167236E0,-1.477577362E0,4.115232991E0
9.330278917E0,2.718646545E0,2.710114288E0,-1.412163391E0,4.090227859E0
9.340246917E0,2.520907745E0,2.770438843E0,-1.421893158E0,4.006505634E0
9.350215917E0,2.163002014E0,2.594554596E0,-1.562001801E0,3.721577742E0
9.360183917E0,1.883233795E0,2.443219299E0,-1.724264374E0,3.533974774E0
9.370151917E0,1.580563202E0,2.278412018E0,-1.964963837E0,3.398591508E0
9.380120917E0,1.139131165E0,2.138602753E0,-2.216889954E0,3.284180660E0
9.390088917E0,8.164022827E-1,2.112706604E0,-2.473306732E0,3.353697672E0
9.400056917E0,5.900729370E-1,2.139800262E0,-2.602937164E0,3.420849765E0
9.410024917E0,3.591032410E-1,2.219584351E0,-2.616409149E0,3.449798061E0
9.419993917E0,4.296066284E-2,2.227966919E0,-2.575095062E0,3.405406993E0
9.429961917E0,-3.775149536E-1,2.140997772E0,-2.498903503E0,3.312236060E0
9.439929917E0,-1.112187195E0,1.823957062E0,-2.463427277E0,3.260713674E0
9.449898917E0,-2.314636688E0,1.160386963E0,-2.414479065E0,3.540303667E0
9.459866917E0,-3.876788177E0,1.190025330E-1,-2.195185089E0,4.456734876E0
9.469834917E0,-6.152655487E0,-1.536255341E0,-2.097438354E0,6.679408482E0
9.479802917E0,-8.633895721E0,-3.820954285E0,-1.979333954E0,9.646844555E0
9.489771917E0,-1.093491074E1,-6.731950836E0,-1.668280792E0,1.294892257E1
9.499739917E0,-1.402328842E1,-1.112651230E1,-1.467997284E0,1.796126137E1
9.509707917E0,-1.790411819E1,-1.639705215E1,-8.987310791E-1,2.429461844E1
9.519675792E0,-2.079909805E1,-2.084430405E1,2.628533936E-1,2.944752253E1
9.529643792E0,-2.335638016E1,-2.416739365E1,2.027683411E0,3.367038624E1
9.539611792E0,-2.566607712E1,-2.711581238E1,4.436474304E0,3.759916355E1
9.549580792E0,-2.751682846E1,-3.012769913E1,7.066954193E0,4.141009472E1
9.559548792E0,-2.827125961E1,-3.073423782E1,9.784552917E0,4.289049977E1
9.569516792E0,-2.817276443E1,-2.884621399E1,1.082414108E1,4.174890115E1
9.579484792E0,-2.863260818E1,-2.674712906E1,1.034199371E1,4.052396820E1
9.589453792E0,-2.907104645E1,-2.463606903E1,9.222471771E0,3.920606617E1
9.599421792E0,-2.836301880E1,-2.266451889E1,7.694299622E0,3.711257871E1
9.609389792E0,-2.619432861E1,-2.089879074E1,5.592520294E0,3.397320399E1
9.619358792E0,-2.252291336E1,-1.919428528E1,2.663561096E0,2.971189612E1
9.629326792E0,-1.817340820E1,-1.732736755E1,-1.017284546E0,2.513056505E1
9.639294792E0,-1.371732468E1,-1.498698441E1,-4.358636169E0,2.077913394E1
9.649262792E0,-9.661808167E0,-1.249047592E1,-6.837032318E0,1.720777547E1
9.659231792E0,-7.638465729E0,-9.635313263E0,-8.051756287E0,1.469748957E1
9.669199792E0,-6.817722473E0,-6.449039154E0,-7.492369537E0,1.200862386E1
9.679167792E0,-6.636299744E0,-3.587140503E0,-6.665938110E0,1.006691523E1
9.689136792E0,-6.562802582E0,-1.144819336E0,-5.883964233E0,8.888308283E0
9.699104792E0,-6.040838013E0,1.107995911E0,-5.093158722E0,7.978699430E0
9.709072792E0,-5.237159271E0,2.907254333E0,-4.455484772E0,7.465340551E0
9.719040792E0,-4.311035156E0,3.870650940E0,-4.122577057E0,7.110738668E0
9.729009792E0,-2.985691223E0,4.073928223E0,-4.170028381E0,6.549838162E0
9.738977792E0,-1.606609039E0,3.730841675E0,-4.331093445E0,5.937907261E0
9.748945792E0,-1.167572021E-1,3.074606323E0,-4.490661621E0,5.443608921E0
9.758914792E0,1.465602264E0,2.483335876E0,-4.564158783E0,5.398749158E0
9.768882792E0,2.935545502E0,2.121837616E0,-4.393663330E0,5.694198778E0
9.778850792E0,3.948938141E0,1.943258972E0,-3.965703278E0,5.924286485E0
9.788818792E0,4.493056641E0,1.919458466E0,-3.387904816E0,5.945567914E0
9.798787792E0,4.286935272E0,1.902244263E0,-2.633323975E0,5.378730558E0
9.808755792E0,3.960763550E0,2.078128510E0,-1.637744293E0,4.763241792E0
9.818723792E0,3.459905090E0,2.536774750E0,-7.565267944E-1,4.356432274E0
9.828692792E0,2.944227448E0,3.002007294E0,-5.688171387E-2,4.205206129E0
9.838660792E0,2.446811829E0,3.282374268E0,3.962260437E-1,4.113133117E0
9.848628792E0,2.033521271E0,3.364253998E0,5.074447632E-1,3.963699523E0
9.858596792E0,1.654359741E0,3.249592438E0,3.514691162E-1,3.663371085E0
9.868565792E0,1.390458527E0,3.049458618E0,6.406677246E-2,3.352115351E0
9.878533792E0,1.179397430E0,2.832110596E0,-2.131567383E-1,3.075266577E0
9.888501792E0,9.419911194E-1,2.675985260E0,-3.959266663E-1,2.864437520E0
9.898470792E0,6.857240295E-1,2.561473389E0,-5.403762817E-1,2.706172554E0
9.908438792E0,4.463717651E-1,2.444267120E0,-7.188052368E-1,2.586575048E0
9.918406792E0,3.098556519E-1,2.371967468E0,-9.276210022E-1,2.565681375E0
9.928375792E0,1.333726501E-1,2.357148285E0,-1.068777466E0,2.591567397E0
9.938343792E0,-1.507365417E-1,2.286644897E0,-1.188378754E0,2.581416366E0
9.948311792E0,-7.060816956E-1,2.061812439E0,-1.382974091E0,2.581131386E0
9.958279792E0,-1.514550476E0,1.622326355E0,-1.553918610E0,2.709329989E0
9.968248792E0,-2.718047791E0,8.553213501E-1,-1.767524414E0,3.353133006E0
9.978216792E0,-4.437671814E0,-3.115022278E-1,-2.040556641E0,4.894265642E0
9.988184792E0,-7.030130768E0,-2.121238861E0,-2.455942841E0,7.742999945E0
9.998153792E0,-1.001342697E1,-4.716242523E0,-3.043471069E0,1.147930222E1
1.000812179E1,-1.347632584E1,-8.531658325E0,-3.776496735E0,1.639092674E1
1.001808979E1,-1.881961441E1,-1.560265411E1,-4.400998077E0,2.483927306E1
1.002805779E1,-2.401800430E1,-2.365485947E1,-3.114722900E0,3.385437056E1
1.003802679E1,-2.542882050E1,-2.820569595E1,6.944059753E-1,3.798247485E1
1.004799479E1,-2.589061020E1,-3.056119766E1,5.714217224E0,4.045939665E1
1.005796279E1,-2.748449570E1,-3.343971176E1,1.072923843E1,4.459516099E1
1.006793179E1,-2.782563629E1,-3.477807861E1,1.641471542E1,4.746813320E1
1.007789979E1,-2.748374725E1,-3.254098068E1,1.945758774E1,4.682808460E1
1.008786779E1,-2.706342133E1,-2.895249298E1,1.854628281E1,4.375660213E1
1.009783679E1,-2.659010559E1,-2.541190567E1,1.517199966E1,3.978678473E1
1.010780479E1,-2.572894638E1,-2.284519318E1,1.033750305E1,3.592694675E1
1.011777279E1,-2.330952759E1,-2.155173294E1,4.859644318E0,3.211584363E1
1.012774079E1,-1.941417801E1,-2.046154999E1,-9.707313538E-1,2.822282153E1
1.013770979E1,-1.488444763E1,-1.872995087E1,-6.306984558E0,2.474138022E1
1.014767779E1,-1.136825958E1,-1.591236008E1,-9.636061707E0,2.180124341E1
1.015764579E1,-9.285041656E0,-1.224917770E1,-9.860594788E0,1.826159036E1
1.016761479E1,-8.452772369E0,-8.458909607E0,-7.852969666E0,1.430634982E1
1.017758279E1,-8.386011200E0,-5.078040161E0,-5.478607178E0,1.123061941E1
1.018755079E1,-8.168064423E0,-2.058219910E0,-3.855682068E0,9.263899277E0
1.019751879E1,-7.801626434E0,4.273612976E-1,-3.016227722E0,8.375299539E0
1.020748779E1,-7.308252411E0,2.004930725E0,-2.552791443E0,7.996689607E0
1.021745579E1,-6.448590088E0,3.252586212E0,-2.261347504E0,7.568178362E0
1.022742379E1,-5.267396393E0,4.221072235E0,-2.108964386E0,7.071820583E0
1.023739279E1,-4.162094879E0,4.423152008E0,-2.193538513E0,6.457469991E0
1.024736079E1,-2.951562195E0,4.234693909E0,-2.387086029E0,5.687049464E0
1.025732879E1,-1.430724792E0,4.017944641E0,-2.707120514E0,5.051668442E0
1.026729679E1,1.929487610E-1,3.691473541E0,-3.334016876E0,4.977938796E0
1.027726579E1,1.447190552E0,3.198099518E0,-3.866309967E0,5.222121578E0
1.028723379E1,2.098486176E0,2.747686157E0,-4.112098846E0,5.372409177E0
1.029720179E1,2.509232025E0,2.670446777E0,-3.879482574E0,5.336470406E0
1.030717079E1,2.720742188E0,2.739004211E0,-3.516038361E0,5.221791635E0
1.031713879E1,2.698438568E0,2.754122772E0,-3.193608856E0,5.006585711E0
1.032710679E1,2.411185913E0,2.766696625E0,-2.661016388E0,4.533148568E0
1.033707579E1,1.787732391E0,2.820584564E0,-2.015408936E0,3.900456071E0
1.034704379E1,1.005159760E0,2.847827911E0,-1.423090668E0,3.338511196E0
1.035701179E1,3.043171692E-1,2.792742462E0,-1.053209839E0,3.000211720E0
1.036697979E1,-3.872447205E-1,2.598745880E0,-8.957373047E-1,2.775929383E0
1.037694879E1,-1.049467621E0,2.425556030E0,-7.671546936E-1,2.751950339E0
1.038691679E1,-1.580263824E0,2.326462097E0,-6.890171814E-1,2.895583589E0
1.039688479E1,-1.798809357E0,2.326911163E0,-7.583230591E-1,3.037315348E0
1.040685379E1,-1.679058380E0,2.298619995E0,-1.131347351E0,3.063141811E0
1.041682179E1,-1.842219086E0,2.008972321E0,-1.482517090E0,3.102837067E0
1.042678979E1,-2.200723572E0,1.772164764E0,-1.421144714E0,3.162815912E0
1.043675779E1,-2.549647980E0,1.629361725E0,-1.138831787E0,3.233026800E0
1.044672679E1,-2.890489197E0,1.553319855E0,-8.068222046E-1,3.379155581E0
1.045669479E1,-3.288661194E0,1.327140198E0,-5.712121582E-1,3.592057472E0
1.046666279E1,-3.458258514E0,9.541159058E-1,-3.731739807E-1,3.606819643E0
1.047663179E1,-3.531306610E0,7.382647705E-1,-2.005828857E-2,3.607708910E0
1.048659979E1,-3.893703003E0,6.619235229E-1,2.086660767E-1,3.955073622E0
1.049656779E1,-4.663402405E0,4.273612976E-1,2.320175171E-2,4.683000960E0
1.050653579E1,-5.730682983E0,-4.496649170E-1,-7.530839539E-1,5.797418515E0
1.051650479E1,-7.632029114E0,-2.238145752E0,-1.633253632E0,8.119401593E0
1.052647271E1,-1.024319916E1,-5.206024017E0,-1.992805939E0,1.166177905E1
1.053644071E1,-1.277278885E1,-8.864715729E0,-2.022294617E0,1.567855208E1
1.054640971E1,-1.588826019E1,-1.313683182E1,-2.148482208E0,2.072749715E1
1.055637771E1,-1.970921448E1,-1.817355789E1,-2.152224426E0,2.689541618E1
1.056634571E1,-2.276630722E1,-2.251333328E1,-1.607806549E0,3.205838364E1
1.057631471E1,-2.569885895E1,-2.579181564E1,-9.629475403E-1,3.642219616E1
1.058628271E1,-2.789419373E1,-2.819955872E1,-3.471281433E-1,3.966637938E1
1.059625071E1,-2.875535294E1,-2.931384155E1,7.336244202E-1,4.106957309E1
1.060621871E1,-2.853381363E1,-2.829506012E1,1.807640991E0,4.022507319E1
1.061618771E1,-2.717987915E1,-2.606050690E1,1.978136444E0,3.770688099E1
1.062615571E1,-2.546549423E1,-2.405153458E1,1.556463318E0,3.506266234E1
1.063612371E1,-2.328003891E1,-2.231439697E1,9.216334534E-1,3.226053211E1
1.064609271E1,-2.087588837E1,-2.076706467E1,-5.912704468E-2,2.944617439E1
1.065606071E1,-1.876976807E1,-1.890029663E1,-9.548643494E-1,2.665402731E1
1.066602871E1,-1.699954926E1,-1.635004990E1,-1.520538025E0,2.363516115E1
1.067599671E1,-1.539353897E1,-1.340372681E1,-2.314187622E0,2.054206413E1
1.068596571E1,-1.377405670E1,-1.042851379E1,-3.343147888E0,1.759702179E1
1.069593371E1,-1.226279938E1,-7.652386780E0,-4.321663055E0,1.508681688E1
1.070590171E1,-1.088671097E1,-5.033283234E0,-5.174888763E0,1.306269075E1
1.071587071E1,-9.504635010E0,-2.523602142E0,-5.658832397E0,1.134588201E1
1.072583871E1,-8.314459991E0,-4.177812195E-1,-5.902675323E0,1.020521250E1
1.073580671E1,-7.368277588E0,1.231189728E0,-5.840704193E0,9.482677271E0
1.074577471E1,-6.281537476E0,2.578537903E0,-5.199886780E0,8.552508012E0
1.075574371E1,-5.054838409E0,3.600163422E0,-4.335135040E0,7.570070266E0
1.076571171E1,-3.819906464E0,4.092789001E0,-3.596870270E0,6.654328136E0
1.077567971E1,-2.576591949E0,4.039350128E0,-3.019221497E0,5.663115218E0
1.078564871E1,-1.345701599E0,3.714525604E0,-2.624342651E0,4.742972445E0
1.079561671E1,-2.463876343E-1,3.288661194E0,-2.259850616E0,3.997864946E0
1.080558471E1,5.418731689E-1,2.822380829E0,-1.917362823E0,3.454814072E0
1.081555371E1,1.135987701E0,2.361339569E0,-1.729952545E0,3.139924908E0
1.082552171E1,1.597478027E0,2.020498352E0,-1.640738068E0,3.053910779E0
1.083548971E1,2.019450531E0,1.934277649E0,-1.576371918E0,3.210071478E0
1.084545771E1,2.372266846E0,1.979483643E0,-1.555565186E0,3.459160090E0
1.085542671E1,2.547851715E0,2.038311310E0,-1.483265533E0,3.584178846E0
1.086539471E1,2.621199188E0,2.157313843E0,-1.390757904E0,3.668636770E0
1.087536271E1,2.622995453E0,2.317331085E0,-1.296603699E0,3.732466966E0
1.088533171E1,2.368225250E0,2.510429535E0,-9.663903809E-1,3.583944427E0
1.089529971E1,2.050585785E0,2.640509033E0,-4.653822327E-1,3.375465988E0
1.090526771E1,1.624421997E0,2.731968842E0,-2.395019531E-3,3.178428277E0
1.091523571E1,1.120120697E0,2.778372345E0,4.369413757E-1,3.027365361E0
1.092520471E1,5.957611084E-1,2.775228882E0,7.921527100E-1,2.946919164E0
1.093517271E1,1.145118713E-1,2.834056549E0,1.078507233E0,3.034496226E0
1.094514071E1,-3.426374817E-1,2.910547485E0,1.281784515E0,3.198696399E0
1.095510971E1,-8.283773804E-1,2.923271027E0,1.402283936E0,3.346359636E0
1.096507771E1,-1.319655762E0,2.930306396E0,1.396895142E0,3.504212172E0
1.097504571E1,-1.659748535E0,2.809956665E0,1.202299805E0,3.477951477E0
1.098501371E1,-1.972597961E0,2.611469421E0,9.196875000E-1,3.399520606E0
1.099498271E1,-2.490221558E0,2.282453613E0,5.559439087E-1,3.423429791E0
1.100495071E1,-3.279530182E0,1.728305969E0,6.017486572E-2,3.707557249E0
1.101491871E1,-4.421655121E0,7.403604126E-1,-4.930746460E-1,4.510242804E0
1.102488771E1,-6.123915253E0,-8.768765259E-1,-1.122665405E0,6.287418236E0
1.103485571E1,-8.463849335E0,-3.322041779E0,-2.011517029E0,9.312298744E0
1.104482371E1,-1.086680237E1,-6.735842743E0,-3.155438232E0,1.316874184E1
1.105479271E1,-1.380444351E1,-1.135359009E1,-4.391268311E0,1.840515976E1
1.106476071E1,-1.881706970E1,-1.827804062E1,-4.566104736E0,2.662739554E1
1.107472871E1,-2.321746902E1,-2.447724930E1,-2.736010437E0,3.384778212E1
1.108469671E1,-2.486673935E1,-2.676913330E1,2.953358459E-1,3.653804109E1
1.109466571E1,-2.627396301E1,-2.671509567E1,2.189496918E0,3.753413601E1
1.110463371E1,-2.836915604E1,-2.649295761E1,3.220403137E0,3.894941352E1
1.111460171E1,-2.972803024E1,-2.521222092E1,3.801494751E0,3.916456598E1
1.112457071E1,-2.946921844E1,-2.364048935E1,2.973716125E0,3.789657715E1
1.113453871E1,-2.766157745E1,-2.269520508E1,1.267414398E0,3.580281469E1
1.114450671E1,-2.485281830E1,-2.207788879E1,-6.430627441E-1,3.324919970E1
1.115447571E1,-2.179871933E1,-2.206486588E1,-2.464774475E0,3.111458796E1
1.116444371E1,-1.865331024E1,-2.147883453E1,-3.738924866E0,2.869261011E1
1.117441171E1,-1.603285950E1,-1.989183472E1,-4.511917419E0,2.594407583E1
1.118437971E1,-1.405861496E1,-1.730715958E1,-4.848717041E0,2.281868717E1
1.119434871E1,-1.268671783E1,-1.407253601E1,-4.685706024E0,1.951781033E1
1.120431671E1,-1.194201645E1,-1.069361252E1,-4.082909546E0,1.654192419E1
1.121428471E1,-1.159039764E1,-7.338339844E0,-3.357068939E0,1.412297635E1
1.122425371E1,-1.121063736E1,-4.209246826E0,-2.846630402E0,1.230851142E1
1.123422171E1,-1.087204147E1,-1.340462494E0,-2.631677399E0,1.126604862E1
1.124418971E1,-1.034034714E1,1.399739227E0,-2.602039032E0,1.075419248E1
1.125415771E1,-9.627230072E0,3.589834900E0,-2.825374603E0,1.065613509E1
1.126412671E1,-8.643026733E0,5.127886505E0,-3.074756012E0,1.050957923E1
1.127409471E1,-7.458090820E0,5.925278320E0,-3.287164307E0,1.007658132E1
1.128406271E1,-6.258485413E0,5.942193146E0,-3.419938202E0,9.283010091E0
1.129403171E1,-5.053940277E0,5.497168579E0,-3.319197693E0,8.171795888E0
1.130399971E1,-3.951931915E0,4.853058014E0,-3.057691498E0,6.965587932E0
1.131396771E1,-2.869981842E0,4.129462738E0,-2.730771332E0,5.722444438E0
1.132393671E1,-1.875449982E0,3.422782288E0,-2.226170654E0,4.493171152E0
1.133390471E1,-1.067130890E0,2.835852814E0,-1.622176666E0,3.436900734E0
1.134387271E1,-3.314108276E-1,2.494562531E0,-1.104852448E0,2.748340278E0
1.135384071E1,2.990780640E-1,2.363135834E0,-7.382647705E-1,2.493770945E0
1.136380971E1,6.351292419E-1,2.392325134E0,-3.153941345E-1,2.495211847E0
1.137377771E1,7.447013855E-1,2.529140625E0,1.374142456E-1,2.640078622E0
1.138374571E1,7.104226685E-1,2.831661530E0,5.504054260E-1,2.970850639E0
1.139371471E1,6.216572571E-1,3.143463135E0,8.684939575E-1,3.319954816E0
1.140368271E1,3.844006348E-1,3.404071198E0,9.794132996E-1,3.562964352E0
1.141365071E1,7.574249268E-2,3.544030151E0,9.616003418E-1,3.672950021E0
1.142361871E1,-1.890568542E-1,3.595074005E0,9.090596008E-1,3.713043085E0
1.143358771E1,-3.998185730E-1,3.639082489E0,8.807684326E-1,3.765438791E0
1.144355571E1,-5.499563599E-1,3.606749725E0,7.728428650E-1,3.729394277E0
1.145352371E1,-6.851252747E-1,3.393592987E0,5.752537537E-1,3.509528015E0
1.146349271E1,-9.319619751E-1,3.096610565E0,5.529501343E-1,3.280747471E0
1.147346071E1,-1.227447510E0,2.860401764E0,6.598278809E-1,3.181807422E0
1.148342871E1,-1.547032928E0,2.632126465E0,7.241940308E-1,3.137810957E0
1.149339771E1,-1.846859436E0,2.424807587E0,7.493417358E-1,3.138804652E0
1.150336571E1,-2.009571075E0,2.271825714E0,7.542814636E-1,3.125461327E0
1.151333371E1,-2.064207458E0,2.121987305E0,6.694079590E-1,3.035109482E0
1.152330154E1,-2.228266296E0,1.924547882E0,4.924758911E-1,2.985228256E0
1.153327054E1,-2.653681641E0,1.554966431E0,2.730322266E-1,3.087797507E0
1.154323854E1,-3.288361816E0,9.445358276E-1,-6.122268677E-2,3.421873695E0
1.155320654E1,-4.257596283E0,1.101708984E-1,-4.373904419E-1,4.281421976E0
1.156317554E1,-5.735772400E0,-1.346749420E0,-9.205856323E-1,5.963245503E0
1.157314354E1,-7.999814301E0,-3.847149811E0,-1.825154572E0,9.062493019E0
1.158311154E1,-1.026789780E1,-7.554041290E0,-3.117866364E0,1.312304674E1
1.159307954E1,-1.279194901E1,-1.287906784E1,-4.274511108E0,1.864874776E1
1.160304854E1,-1.687216415E1,-2.006427612E1,-3.963158569E0,2.651323680E1
1.161301654E1,-2.132585266E1,-2.642469955E1,-2.827619934E0,3.407421566E1
1.162298454E1,-2.480207382E1,-3.014206924E1,-1.459165649E0,3.906169951E1
1.163295354E1,-2.677422272E1,-3.090608047E1,6.885681152E-3,4.089064514E1
1.164292154E1,-2.809552505E1,-3.079665802E1,8.421487427E-1,4.169534612E1
1.165288954E1,-2.812456467E1,-2.921010727E1,1.332828369E0,4.057090011E1
1.166285854E1,-2.711446518E1,-2.656795166E1,1.282832336E0,3.798283739E1
1.167282654E1,-2.615555923E1,-2.484443573E1,9.449848938E-1,3.608673249E1
1.168279454E1,-2.493978745E1,-2.401066956E1,6.203100586E-1,3.462499148E1
1.169276254E1,-2.321582245E1,-2.384571259E1,-1.079255676E-1,3.328068612E1
1.170273154E1,-2.090762238E1,-2.341356125E1,-1.057251434E0,3.140766315E1
1.171269954E1,-1.809257629E1,-2.214165619E1,-2.018851776E0,2.866478708E1
1.172266754E1,-1.512948807E1,-1.972597961E1,-2.820285187E0,2.501938627E1
1.173263654E1,-1.275078461E1,-1.652533539E1,-3.439098358E0,2.115411580E1
1.174260454E1,-1.131601822E1,-1.312425797E1,-3.667074280E0,1.771287242E1
1.175257254E1,-1.026729904E1,-9.710457001E0,-3.309916992E0,1.451433620E1
1.176254154E1,-9.255103912E0,-6.528673553E0,-2.566562805E0,1.161325843E1
1.177250954E1,-8.301287384E0,-3.707340546E0,-1.876946869E0,9.283247045E0
1.178247754E1,-7.537575531E0,-1.180744629E0,-1.562450867E0,7.787840232E0
1.179244554E1,-7.045399017E0,1.032702484E0,-1.715133362E0,7.324329606E0
1.180241454E1,-6.529272308E0,2.707569580E0,-2.100731506E0,7.373967912E0
1.181238254E1,-6.028563538E0,3.839964752E0,-2.579436035E0,7.598841878E0
1.182235054E1,-5.484594727E0,4.395309906E0,-3.090473328E0,7.677926405E0
1.183231954E1,-4.691244507E0,4.442312164E0,-3.520229645E0,7.357576309E0
1.184228754E1,-3.580404510E0,4.216880951E0,-3.702849884E0,6.656761876E0
1.185225554E1,-2.356549530E0,3.812422028E0,-3.660338287E0,5.786705780E0
1.186222354E1,-1.155447235E0,3.304528198E0,-3.529061279E0,4.970838806E0
1.187219254E1,-2.484832764E-2,2.792742462E0,-3.173550568E0,4.227463909E0
1.188216054E1,9.824070740E-1,2.364033966E0,-2.745740204E0,3.754047085E0
1.189212854E1,1.798659668E0,2.033371582E0,-2.239193573E0,3.519057324E0
1.190209754E1,2.365680542E0,1.877395935E0,-1.687590637E0,3.459627449E0
1.191206554E1,2.647095337E0,1.895508270E0,-1.096619568E0,3.435497024E0
1.192203354E1,2.771935730E0,2.083217926E0,-5.090913391E-1,3.504653850E0
1.193200254E1,2.786455536E0,2.364632721E0,-6.436614990E-2,3.655128638E0
1.194197054E1,2.694546661E0,2.697091370E0,1.987866211E-1,3.817643211E0
1.195193854E1,2.373614044E0,2.861748962E0,3.285667419E-1,3.732506779E0
1.196190654E1,1.978435822E0,3.036735077E0,5.134323120E-1,3.660543807E0
1.197187554E1,1.381028137E0,3.205284576E0,7.626640320E-1,3.572498336E0
1.198184354E1,7.229965210E-1,3.284769287E0,1.047671356E0,3.522789876E0
1.199181154E1,1.441502380E-1,3.342399445E0,1.276994476E0,3.580939574E0
1.200178054E1,-4.198768616E-1,3.300636292E0,1.384470978E0,3.603783622E0
1.201174854E1,-9.307644653E-1,3.114273834E0,1.432371368E0,3.552001090E0
1.202171654E1,-1.408271484E0,2.936293945E0,1.462009735E0,3.569667095E0
1.203168554E1,-1.753453674E0,2.761756897E0,1.478924561E0,3.590141892E0
1.204165354E1,-1.977238312E0,2.632425842E0,1.450034637E0,3.597462662E0
1.205162154E1,-2.098785553E0,2.487826538E0,1.322499847E0,3.513287282E0
1.206158954E1,-2.406545563E0,2.327958984E0,1.174158325E0,3.548168873E0
1.207155854E1,-2.976859589E0,2.029329987E0,9.202862549E-1,3.718440533E0
1.208152654E1,-3.885470123E0,1.349743195E0,4.848417664E-1,4.141709346E0
1.209149454E1,-5.100343781E0,1.336720276E-1,-1.495390320E-1,5.104286122E0
1.210146354E1,-7.080725555E0,-1.768721924E0,-9.409432983E-1,7.358697298E0
1.211143154E1,-9.004674683E0,-4.471052399E0,-1.821861420E0,1.021732131E1
1.212139954E1,-1.076426559E1,-7.970026245E0,-2.792443085E0,1.368168376E1
1.213136854E1,-1.416624115E1,-1.366059265E1,-3.762575684E0,2.003624605E1
1.214133654E1,-1.836351288E1,-2.044897614E1,-3.674259338E0,2.772867490E1
1.215130454E1,-2.259102173E1,-2.672093353E1,-2.217039642E0,3.506105840E1
1.216127254E1,-2.526805481E1,-3.081716537E1,4.367916870E-1,3.985427283E1
1.217124154E1,-2.628997971E1,-3.173131439E1,2.892584839E0,4.130867213E1
1.218120954E1,-2.780842209E1,-3.112866760E1,3.949387207E0,4.192731741E1
1.219117754E1,-2.857737305E1,-2.848007538E1,4.059258728E0,4.054945777E1
1.220114654E1,-2.873948593E1,-2.588806549E1,2.927761688E0,3.879074342E1
1.221111454E1,-2.779524948E1,-2.417502777E1,1.252744904E0,3.685888266E1
1.222108254E1,-2.588791580E1,-2.309936462E1,-9.696835327E-1,3.470886222E1
1.223105154E1,-2.313424210E1,-2.240001892E1,-3.546125793E0,3.239643519E1
1.224101954E1,-1.988180557E1,-2.129142426E1,-5.744154968E0,2.969185504E1
1.225098754E1,-1.647489029E1,-1.942720093E1,-7.149432678E0,2.645661606E1
1.226095554E1,-1.344638809E1,-1.693593155E1,-7.889643402E0,2.301907042E1
1.227092454E1,-1.098505646E1,-1.410022842E1,-7.846233673E0,1.952053508E1
1.228089254E1,-9.157656555E0,-1.112277008E1,-7.045698395E0,1.603809695E1
1.229086054E1,-7.870183868E0,-8.238867188E0,-5.677842865E0,1.273014636E1
1.230082954E1,-6.865922241E0,-5.601800995E0,-4.195026398E0,9.804045547E0
1.231079754E1,-6.129154358E0,-3.207529907E0,-2.940934296E0,7.516905998E0
1.232076554E1,-5.628894653E0,-1.083596649E0,-2.020498352E0,6.077914964E0
1.233073354E1,-5.243595886E0,6.152206421E-1,-1.439706116E0,5.472343918E0
1.234070254E1,-4.800966339E0,1.876048737E0,-1.078806610E0,5.266180813E0
1.235067054E1,-4.292024689E0,2.805765381E0,-8.652008057E-1,5.200227662E0
1.236063854E1,-3.636088715E0,3.426225128E0,-8.077203369E-1,5.060886475E0
1.237060754E1,-2.783312073E0,3.821852417E0,-8.800199890E-1,4.809138922E0
1.238057554E1,-1.847308502E0,3.970942383E0,-1.015188904E0,4.495724705E0
1.239054354E1,-8.851094055E-1,3.878135376E0,-1.178648987E0,4.148802971E0
1.240051254E1,-1.407073975E-2,3.626957703E0,-1.252744904E0,3.837237282E0
1.241048054E1,7.289840698E-1,3.287164307E0,-1.247655487E0,3.590753565E0
1.242044854E1,1.367256775E0,2.963986359E0,-1.191073151E0,3.474659908E0
1.243041654E1,1.761536865E0,2.704126740E0,-1.054706726E0,3.395249597E0
1.244038554E1,1.865420837E0,2.511627045E0,-8.553213501E-1,3.243399439E0
1.245035354E1,1.707948303E0,2.380948792E0,-6.514453125E-1,3.001730426E0
1.246032154E1,1.489402771E0,2.359243927E0,-4.468208313E-1,2.825597526E0
1.247029054E1,1.318458252E0,2.481090546E0,-3.460803223E-1,2.830885735E0
1.248025854E1,1.143322449E0,2.666255493E0,-3.032693481E-1,2.916860791E0
1.249022654E1,9.208850098E-1,2.873424683E0,-3.089575195E-1,3.033158973E0
1.250019454E1,5.926176453E-1,3.036884766E0,-3.128494263E-1,3.109942044E0
1.251016354E1,3.326083374E-1,3.197351074E0,-3.152444458E-1,3.230024963E0
1.252013154E1,-5.194198608E-2,3.320844269E0,-2.847079468E-1,3.333431152E0
1.253010017E1,-5.637277222E-1,3.388353882E0,-1.960922241E-1,3.440520765E0
1.254006917E1,-1.061891785E0,3.366798706E0,-1.249900818E-1,3.532501976E0
1.255003717E1,-1.531764679E0,3.221001892E0,-5.538482666E-2,3.567102984E0
1.256000517E1,-1.903441772E0,3.029849396E0,-2.784210205E-2,3.578247214E0
1.256997417E1,-2.123035126E0,2.817590790E0,-9.684860229E-2,3.529231596E0
1.257994217E1,-2.251767426E0,2.467169495E0,-3.115022278E-1,3.354760124E0
1.258991017E1,-2.398013306E0,1.945803680E0,-5.063969421E-1,3.129386144E0
1.259987817E1,-2.717149658E0,1.381776581E0,-6.054908752E-1,3.107865503E0
1.260984717E1,-3.350033569E0,7.276368713E-1,-7.206015015E-1,3.503062497E0
1.261981517E1,-4.224964142E0,-1.972897339E-1,-9.202862549E-1,4.328530008E0
1.262978317E1,-5.532944183E0,-1.695374451E0,-1.263821869E0,5.923260215E0
1.263975217E1,-7.549101563E0,-4.138444061E0,-1.721270599E0,8.779431993E0
1.264972017E1,-9.896969147E0,-7.728278961E0,-2.190694427E0,1.274658527E1
1.265968817E1,-1.225606339E1,-1.255723709E1,-2.430046692E0,1.771441278E1
1.266965717E1,-1.618269791E1,-1.908845535E1,-1.710343323E0,2.508334335E1
1.267962517E1,-2.060016174E1,-2.558704147E1,4.818479919E-1,3.285263357E1
1.268959317E1,-2.449596039E1,-3.024430664E1,3.527863770E0,3.907961083E1
1.269956217E1,-2.732941818E1,-3.300321945E1,6.000571747E0,4.326796105E1
1.270953017E1,-2.818593704E1,-3.384821228E1,6.922205200E0,4.458772753E1
1.271949817E1,-2.706806168E1,-3.241164963E1,6.099815369E0,4.266617796E1
1.272946617E1,-2.468396942E1,-2.923375809E1,3.526217194E0,3.842323732E1
1.273943517E1,-2.280582504E1,-2.679922073E1,1.002914429E-2,3.518954374E1
1.274940317E1,-2.123050095E1,-2.525428345E1,-3.390449524E0,3.316637078E1
1.275937117E1,-1.959859451E1,-2.415571793E1,-5.930816803E0,3.166667339E1
1.276934017E1,-1.752121445E1,-2.318603439E1,-7.729326782E0,3.007204082E1
1.277930817E1,-1.506123001E1,-2.196936447E1,-8.978179779E0,2.810874129E1
1.278927617E1,-1.243374390E1,-2.029315018E1,-9.541009369E0,2.564060824E1
1.279924417E1,-9.720186768E0,-1.794139069E1,-9.094787292E0,2.234033765E1
1.280921317E1,-7.414830780E0,-1.526944702E1,-7.982300720E0,1.875774114E1
1.281918117E1,-5.856271820E0,-1.272743317E1,-6.643634491E0,1.550552656E1
1.282914917E1,-4.733007660E0,-1.015383499E1,-4.924758911E0,1.223744160E1
1.283911817E1,-4.168531494E0,-7.593259735E0,-3.066223755E0,9.188905067E0
1.284908617E1,-4.041745148E0,-5.163811798E0,-1.403331757E0,6.705967204E0
1.285905417E1,-4.077371063E0,-2.922073517E0,-1.758842468E-1,5.019402723E0
1.286902317E1,-3.995341644E0,-9.080117798E-1,4.948709106E-1,4.127001026E0
1.287899117E1,-4.003125458E0,7.920030212E-1,7.339237976E-1,4.146194202E0
1.288895917E1,-3.998185730E0,2.263143768E0,8.726852417E-1,4.676418328E0
1.289892717E1,-3.890559540E0,3.587290192E0,8.668473816E-1,5.362511430E0
1.290889617E1,-3.708538055E0,4.511468353E0,5.164260864E-1,5.862874475E0
1.291886417E1,-3.341501312E0,4.975802765E0,5.987548828E-3,5.993686681E0
1.292883217E1,-2.741399231E0,5.165009308E0,-6.459068298E-1,5.883008289E0
1.293880117E1,-1.949695587E0,5.102289734E0,-1.378333740E0,5.633336250E0
1.294876917E1,-1.083896027E0,4.828658752E0,-2.023342438E0,5.346465240E0
1.295873717E1,-3.372486877E-1,4.370461578E0,-2.499951324E0,5.046229058E0
1.296870617E1,3.317102051E-1,3.941603394E0,-2.821033630E0,4.858446224E0
1.297867417E1,7.674540710E-1,3.579656067E0,-3.027304688E0,4.750525969E0
1.298864217E1,9.529183960E-1,3.382366333E0,-3.008892975E0,4.626217938E0
1.299861017E1,9.431886292E-1,3.319646759E0,-2.966082001E0,4.550527643E0
1.300857917E1,6.833290100E-1,3.359164581E0,-2.831511841E0,4.446165148E0
1.301854717E1,1.121168518E-1,3.476670227E0,-2.542163544E0,4.308410558E0
1.302851517E1,-7.020401001E-1,3.587140503E0,-2.181264038E0,4.256565528E0
1.303848417E1,-1.527423706E0,3.741319885E0,-1.814826050E0,4.429908718E0
1.304845217E1,-2.272274780E0,3.815116425E0,-1.404229889E0,4.657274696E0
1.305842017E1,-2.845582581E0,3.772904205E0,-9.551637268E-1,4.821253375E0
1.306838917E1,-3.348836060E0,3.632645874E0,-6.331832886E-1,4.981138432E0
1.307835717E1,-3.723806305E0,3.337459717E0,-4.863386536E-1,5.024131372E0
1.308832517E1,-4.004472656E0,2.913241882E0,-4.104464722E-1,4.969028660E0
1.309829317E1,-4.263883209E0,2.465672607E0,-3.393443298E-1,4.937144519E0
1.310826217E1,-4.601431274E0,1.966161346E0,-2.499801636E-1,5.010134758E0
1.311823017E1,-5.019960938E0,1.353934479E0,-2.213896179E-1,5.204052243E0
1.312819817E1,-5.461392975E0,5.917195129E-1,-3.601510620E-1,5.505147954E0
1.313816717E1,-6.096671906E0,-3.858975220E-1,-6.628216553E-1,6.144726012E0
1.314813517E1,-7.133715363E0,-1.896107025E0,-1.343905334E0,7.502746049E0
1.315810317E1,-8.583750000E0,-4.276606750E0,-2.203268280E0,9.839945146E0
1.316807217E1,-1.060005707E1,-7.781867523E0,-2.911744995E0,1.346836779E1
1.317804017E1,-1.376432693E1,-1.275033554E1,-3.495680695E0,1.908527013E1
1.318800817E1,-1.832504288E1,-1.887829239E1,-3.760030975E0,2.657696282E1
1.319797617E1,-2.230691254E1,-2.511567169E1,-3.552113342E0,3.377888128E1
1.320794517E1,-2.479069748E1,-3.024715073E1,-2.925815735E0,3.921771546E1
1.321791317E1,-2.477408203E1,-3.218217682E1,-2.018702087E0,4.066353162E1
1.322788117E1,-2.326776443E1,-3.169104813E1,-1.598974915E0,3.934803825E1
1.323785017E1,-2.118140305E1,-3.015254745E1,-1.051712952E0,3.686372272E1
1.324781817E1,-1.828717163E1,-2.739303589E1,-4.499642944E-1,3.293936140E1
1.325778617E1,-1.576252167E1,-2.471705063E1,-7.192543030E-1,2.932417105E1
1.326775517E1,-1.412447800E1,-2.280088531E1,-1.487756195E0,2.686251418E1
1.327772317E1,-1.284164566E1,-2.145248932E1,-2.567760315E0,2.513385275E1
1.328769117E1,-1.214469498E1,-2.047053131E1,-3.869603119E0,2.411452045E1
1.329765917E1,-1.161464722E1,-1.903786057E1,-5.099146271E0,2.287665748E1
1.330762817E1,-1.085617447E1,-1.722857300E1,-6.352639618E0,2.133157945E1
1.331759617E1,-1.021850052E1,-1.520044052E1,-7.207362213E0,1.968291683E1
1.332756417E1,-9.742340698E0,-1.289239014E1,-7.238647156E0,1.770663543E1
1.333753317E1,-9.287586365E0,-1.031894165E1,-6.481820984E0,1.532167812E1
1.334750117E1,-9.251361694E0,-7.760162659E0,-5.204826508E0,1.314906980E1
1.335746917E1,-9.442813568E0,-5.190606079E0,-3.683839417E0,1.138770356E1
1.336743817E1,-9.699230347E0,-2.661166077E0,-2.359094238E0,1.033064373E1
1.337740617E1,-1.026535309E1,-4.782554626E-1,-1.545386353E0,1.039203644E1
1.338737417E1,-1.039468414E1,1.574725342E0,-8.767268372E-1,1.054978049E1
1.339734217E1,-1.002106110E1,3.368894348E0,-5.084925842E-1,1.058440737E1
1.340731117E1,-9.377249908E0,4.679568787E0,-4.101470947E-1,1.048805990E1
1.341727917E1,-8.499175873E0,5.476062469E0,-4.174818420E-1,1.011916705E1
1.342724717E1,-7.282356262E0,5.723797302E0,-5.342390442E-1,9.277929707E0
1.343721617E1,-5.852978668E0,5.602399750E0,-7.929011536E-1,8.140819030E0
1.344718417E1,-4.320315857E0,5.238207092E0,-1.104253693E0,6.879194638E0
1.345715217E1,-3.146606598E0,4.612657928E0,-1.257235565E0,5.723494345E0
1.346712117E1,-2.279310150E0,3.905378723E0,-1.178349609E0,4.672873370E0
1.347708917E1,-1.400188293E0,3.235970764E0,-1.094224548E0,3.691796501E0
1.348705717E1,-6.225553894E-1,2.817740479E0,-1.038839722E0,3.066989499E0
1.349702517E1,1.062789917E-2,2.718796234E0,-8.990304565E-1,2.863602919E0
1.350699417E1,6.912625122E-1,2.843936005E0,-8.214916992E-1,3.039846126E0
1.351696217E1,1.145118713E0,3.041974182E0,-9.436376953E-1,3.384576176E0
1.352692983E1,1.221459961E0,3.103795624E0,-1.062191162E0,3.500537355E0
1.353689883E1,1.106648712E0,3.137625275E0,-1.147513733E0,3.519396469E0
1.354686683E1,8.876541138E-1,3.187770996E0,-1.176852722E0,3.512092835E0
1.355683483E1,5.824388123E-1,3.284170532E0,-1.146316223E0,3.526904016E0
1.356680283E1,3.444337463E-1,3.353476410E0,-1.132245483E0,3.556180321E0
1.357677183E1,1.164578247E-1,3.336860962E0,-1.147064667E0,3.530433522E0
1.358673983E1,-9.490264893E-2,3.345692596E0,-1.117575989E0,3.528688362E0
1.359670783E1,-2.306703186E-1,3.459905090E0,-8.900491333E-1,3.579991549E0
1.360667683E1,-2.020797729E-1,3.731739807E0,-5.056484985E-1,3.771259554E0
1.361664483E1,-7.574249268E-2,3.997586975E0,-7.993377686E-2,3.999103394E0
1.362661283E1,-6.900650024E-2,4.089495850E0,3.484753418E-1,4.104896255E0
1.363658183E1,-1.981878662E-1,3.990850983E0,8.244854736E-1,4.079944398E0
1.364654983E1,-7.107220459E-1,3.535198517E0,1.304088135E0,3.834501303E0
1.365651783E1,-1.933379517E0,2.440375214E0,1.704056396E0,3.549252843E0
1.366648583E1,-3.773502960E0,5.140310669E-1,1.651964722E0,4.151209459E0
1.367645483E1,-6.165379028E0,-2.126627655E0,1.203796692E0,6.632011024E0
1.368642283E1,-9.111103363E0,-5.892197113E0,-2.787203979E-1,1.085393368E1
1.369639083E1,-1.191462341E1,-1.151285889E1,-3.198099518E0,1.687400401E1
1.370635983E1,-1.373004822E1,-1.711974930E1,-5.699847107E0,2.267351532E1
1.371632783E1,-1.694326630E1,-2.223236755E1,-7.868237915E0,2.903896706E1
1.372629583E1,-2.302437057E1,-2.871388916E1,-1.035142410E1,3.823298382E1
1.373626483E1,-2.539379333E1,-3.083707397E1,-1.012389725E1,4.120998868E1
1.374623283E1,-2.677048050E1,-3.018308395E1,-7.820936279E0,4.109554997E1
1.375620083E1,-2.658187271E1,-2.795601517E1,-4.746779022E0,3.886729540E1
1.376616983E1,-2.497526367E1,-2.493993713E1,-2.728975067E0,3.540072831E1
1.377613783E1,-2.338556946E1,-2.301718552E1,-1.937271423E0,3.286987540E1
1.378610583E1,-2.144335831E1,-2.239912079E1,-2.165097656E0,3.108417404E1
1.379607383E1,-1.875300293E1,-2.256497589E1,-3.295546875E0,2.952480119E1
1.380604283E1,-1.625829071E1,-2.302901093E1,-4.885540466E0,2.861006583E1
1.381601083E1,-1.354682922E1,-2.232442612E1,-6.053561554E0,2.680563730E1
1.382597883E1,-1.178918427E1,-2.013238449E1,-6.575675812E0,2.423916837E1
1.383594783E1,-1.102876556E1,-1.727632370E1,-6.342161407E0,2.145525674E1
1.384591583E1,-1.066621948E1,-1.442505295E1,-5.729335785E0,1.883283513E1
1.385588383E1,-1.021490799E1,-1.179651901E1,-4.893324280E0,1.635380165E1
1.386585283E1,-9.887838135E0,-9.462871857E0,-3.933669891E0,1.424040188E1
1.387582083E1,-9.950557709E0,-7.557334442E0,-3.047512665E0,1.286134659E1
1.388578883E1,-9.913883972E0,-5.738616486E0,-2.200723572E0,1.166447593E1
1.389575683E1,-9.678722992E0,-3.811823273E0,-1.309177551E0,1.048435126E1
1.390572583E1,-9.616153107E0,-1.974244537E0,-6.348298645E-1,9.837227812E0
1.391569383E1,-9.664203186E0,-2.814147949E-2,-2.019300842E-1,9.666353548E0
1.392566183E1,-9.314081268E0,2.107317810E0,6.406677246E-2,9.549712183E0
1.393563083E1,-8.461903381E0,4.315525818E0,3.219804382E-1,9.504275002E0
1.394559883E1,-7.605384521E0,5.997577972E0,6.230044556E-1,9.705717377E0
1.395556683E1,-6.880741425E0,6.630761261E0,8.307723999E-1,9.591755847E0
1.396553583E1,-6.393205261E0,6.547534332E0,8.295748901E-1,9.188660068E0
1.397550383E1,-5.922134857E0,6.261628876E0,5.483097839E-1,8.635989872E0
1.398547183E1,-5.196144562E0,5.890999603E0,7.918533325E-2,7.855575405E0
1.399543983E1,-4.146527252E0,5.402565308E0,-5.005590820E-1,6.828759737E0
1.400540883E1,-3.290307770E0,4.828808441E0,-1.021026764E0,5.931779820E0
1.401537683E1,-2.476300507E0,4.348457336E0,-1.276695099E0,5.164406624E0
1.402534483E1,-1.718276825E0,3.945495300E0,-1.296004944E0,4.494333902E0
1.403531383E1,-9.801617432E-1,3.605851593E0,-1.278042297E0,3.949211930E0
1.404528183E1,-3.315605164E-1,3.331771545E0,-1.249751129E0,3.573865119E0
1.405524983E1,1.836680603E-1,3.105292511E0,-1.220412140E0,3.341553729E0
1.406521883E1,5.170248413E-1,2.980601807E0,-1.159339142E0,3.239655701E0
1.407518683E1,5.101391602E-1,3.007246399E0,-8.704399109E-1,3.171977066E0
1.408515483E1,2.380050659E-1,3.037184143E0,-4.986131287E-1,3.087029152E0
1.409512283E1,-4.123924255E-1,2.974464569E0,-1.094224548E-1,3.004909360E0
1.410509183E1,-1.205443268E0,2.835403748E0,3.764671326E-1,3.103922580E0
1.411505983E1,-1.767374725E0,2.747237091E0,8.120613098E-1,3.366061293E0
1.412502783E1,-2.303559723E0,2.636018372E0,1.067879333E0,3.659965372E0
1.413499683E1,-2.862647095E0,2.424208832E0,1.253343658E0,3.955048315E0
1.414496483E1,-3.281176758E0,2.115401001E0,1.417402496E0,4.153320617E0
1.415493283E1,-3.711082764E0,1.732646942E0,1.491947479E0,4.358911330E0
1.416490183E1,-4.234095154E0,1.278042297E0,1.458716583E0,4.657124430E0
1.417486983E1,-4.897964630E0,7.493417358E-1,1.288370819E0,5.119713852E0
1.418483783E1,-5.665718079E0,7.993377686E-2,7.538323975E-1,5.716206263E0
1.419480583E1,-6.671476593E0,-9.357041931E-1,3.682342529E-2,6.736876000E0
1.420477483E1,-8.081095276E0,-2.658321991E0,-7.795788574E-1,8.542746623E0
1.421474283E1,-9.902807007E0,-5.371879120E0,-1.923350372E0,1.142899596E1
1.422471083E1,-1.220262451E1,-8.952283630E0,-3.419788513E0,1.551587512E1
1.423467983E1,-1.497815277E1,-1.294972092E1,-4.565056915E0,2.031945070E1
1.424464783E1,-1.869282806E1,-1.849913086E1,-5.202431488E0,2.680867317E1
1.425461583E1,-2.246468445E1,-2.550306610E1,-5.133424988E0,3.437179774E1
1.426458483E1,-2.349574036E1,-3.057017899E1,-3.467838593E0,3.871190466E1
1.427455283E1,-2.334186035E1,-3.305950241E1,-5.252577209E-1,4.047281853E1
1.428452083E1,-2.316747299E1,-3.464216125E1,2.592758331E0,4.175564078E1
1.429448883E1,-2.147030228E1,-3.359688492E1,5.574857025E0,4.025920500E1
1.430445783E1,-2.019989410E1,-3.060535583E1,6.448290710E0,3.723310329E1
1.431442583E1,-2.005589355E1,-2.809088470E1,5.302124176E0,3.492061269E1
1.432439383E1,-1.993823822E1,-2.615361328E1,3.562292175E0,3.307921941E1
1.433436283E1,-1.894400574E1,-2.437396408E1,1.336570587E0,3.089905985E1
1.434433083E1,-1.682680847E1,-2.205678268E1,-1.504371643E0,2.778320140E1
1.435429883E1,-1.376178223E1,-1.873384277E1,-4.718487854E0,2.371935165E1
1.436426783E1,-1.116647919E1,-1.522933044E1,-7.466323700E0,2.030686467E1
1.437423583E1,-9.236243134E0,-1.217418365E1,-8.936566315E0,1.770257474E1
1.438420383E1,-7.912096710E0,-9.497000885E0,-9.139993286E0,1.537315119E1
1.439417283E1,-6.874903564E0,-6.869664459E0,-8.281079407E0,1.276843236E1
1.440414083E1,-5.976621552E0,-4.255350952E0,-6.843468933E0,1.003299975E1
1.441410883E1,-5.460345154E0,-1.807640991E0,-5.334307251E0,7.844601265E0
1.442407683E1,-5.411995697E0,3.149450684E-1,-4.150269470E0,6.827417117E0
1.443404583E1,-5.517675934E0,2.195035400E0,-3.050356750E0,6.675897275E0
1.444401383E1,-5.641318817E0,3.766467590E0,-2.098186798E0,7.100221401E0
1.445398183E1,-5.800138550E0,4.924609222E0,-1.518592072E0,7.758834002E0
1.446395083E1,-5.733676758E0,5.499563599E0,-1.357676697E0,8.059995965E0
1.447391883E1,-5.347180481E0,5.567522278E0,-1.500180359E0,7.863853033E0
1.448388683E1,-4.656666412E0,5.331163788E0,-1.880240021E0,7.324012011E0
1.449385583E1,-3.882925415E0,4.983436890E0,-2.208806763E0,6.692576509E0
1.450382383E1,-3.068469086E0,4.660109253E0,-2.300865326E0,6.035404048E0
1.451379183E1,-2.173330536E0,4.404889984E0,-2.202819214E0,5.383199223E0
1.452375921E1,-1.509161682E0,4.166136475E0,-2.003583527E0,4.862983555E0
1.453372821E1,-9.735754395E-1,4.004023590E0,-1.683549042E0,4.451335914E0
1.454369621E1,-7.020401001E-1,3.939058685E0,-1.233435059E0,4.186932728E0
1.455366421E1,-7.423063660E-1,3.972289581E0,-6.635700989E-1,4.095171368E0
1.456363321E1,-9.698332214E-1,3.998784485E0,-5.748046875E-2,4.115113344E0
1.457360121E1,-1.302740936E0,4.021237793E0,4.311035156E-1,4.248921931E0
1.458356921E1,-1.659898224E0,4.033212891E0,7.810757446E-1,4.430817944E0
1.459353821E1,-1.979932709E0,3.982468414E0,9.812095642E-1,4.554444029E0
1.460350621E1,-2.187101898E0,3.819008331E0,9.560618591E-1,4.503586751E0
1.461347421E1,-2.273621979E0,3.602109375E0,7.077282715E-1,4.318035220E0
1.462344221E1,-2.213596802E0,3.358116760E0,3.730242920E-1,4.039320004E0
1.463341121E1,-2.098336487E0,3.020718384E0,5.433700562E-2,3.678411080E0
1.464337921E1,-1.919458466E0,2.639161835E0,-2.664459229E-1,3.274215848E0
1.465334721E1,-1.817221069E0,2.214195557E0,-5.276527405E-1,2.912622837E0
1.466331621E1,-1.769769745E0,1.707948303E0,-7.197033691E-1,2.562644200E0
1.467328421E1,-1.823208618E0,1.157542877E0,-8.623567200E-1,2.325436366E0
1.468325221E1,-2.166295166E0,4.772076416E-1,-9.870474243E-1,2.427925966E0
1.469322121E1,-2.883304138E0,-4.185296631E-1,-1.205293579E0,3.152989446E0
1.470318921E1,-4.030668182E0,-1.716480560E0,-1.445394287E0,4.613215381E0
1.471315721E1,-5.642216949E0,-3.710933075E0,-1.926942902E0,7.022730618E0
1.472312521E1,-7.976762238E0,-6.934030609E0,-2.650089111E0,1.089644385E1
1.473309421E1,-1.081456100E1,-1.168919220E1,-3.127296753E0,1.622873775E1
1.474306221E1,-1.425485687E1,-1.760324387E1,-2.985840912E0,2.284710890E1
1.475303021E1,-1.795082108E1,-2.361264725E1,-1.766925659E0,2.971382025E1
1.476299921E1,-2.136177795E1,-2.815255646E1,1.453477478E-1,3.533996489E1
1.477296721E1,-2.343451767E1,-3.003264679E1,2.526745605E0,3.817749252E1
1.478293521E1,-2.537792633E1,-3.028801575E1,5.025798798E0,3.983292227E1
1.479290421E1,-2.646885773E1,-3.014820648E1,7.105873260E0,4.074319843E1
1.480287221E1,-2.645837952E1,-2.861150208E1,7.776778107E0,3.973842190E1
1.481284021E1,-2.567116653E1,-2.635105270E1,6.640041962E0,3.738284268E1
1.482280921E1,-2.452634720E1,-2.470986557E1,4.499044189E0,3.510499341E1
1.483277721E1,-2.306703186E1,-2.378778305E1,1.666035461E0,3.317713453E1
1.484274521E1,-2.047142944E1,-2.306269089E1,-1.629511414E0,3.088077787E1
1.485271321E1,-1.718067261E1,-2.191652435E1,-4.777315521E0,2.825477472E1
1.486268221E1,-1.404514297E1,-2.004975632E1,-6.948550415E0,2.544682932E1
1.487265021E1,-1.157483002E1,-1.774904068E1,-8.086783447E0,2.268041449E1
1.488261821E1,-9.843979340E0,-1.498054779E1,-8.260122986E0,1.973703050E1
1.489258721E1,-8.636440430E0,-1.190863586E1,-7.498955841E0,1.651175491E1
1.490255521E1,-7.709867249E0,-8.725205841E0,-6.074667664E0,1.313289219E1
1.491252321E1,-7.021748199E0,-5.738616486E0,-4.500840454E0,1.012394349E1
1.492249221E1,-6.533164215E0,-2.866838379E0,-2.947670288E0,7.719440205E0
1.493246021E1,-6.185736694E0,-2.390528870E-1,-1.601819000E0,6.394240287E0
1.494242821E1,-6.081852722E0,1.957629089E0,-7.135661316E-1,6.428873992E0
1.495239621E1,-5.920787659E0,4.067641296E0,-6.137237549E-2,7.183675855E0
1.496236521E1,-5.593568115E0,5.550457764E0,1.871109009E-2,7.880097446E0
1.497233321E1,-5.430407410E0,5.954766998E0,-4.999603271E-1,8.074560977E0
1.498230121E1,-5.151986389E0,5.590274963E0,-1.319955139E0,7.715984674E0
1.499227021E1,-4.316274261E0,4.943470001E0,-2.385888519E0,6.982877858E0
1.500223821E1,-2.980003052E0,4.292922821E0,-3.276985474E0,6.168325407E0
1.501220621E1,-1.703008575E0,3.639830933E0,-3.757037201E0,5.501266759E0
1.502217521E1,-6.773414612E-1,3.097059631E0,-3.858077087E0,4.993528675E0
1.503214321E1,3.384461975E-1,2.742147675E0,-3.680695953E0,4.602330105E0
1.504211121E1,1.354982300E0,2.529290314E0,-3.447181549E0,4.485125099E0
1.505208021E1,2.107018433E0,2.451452179E0,-3.173101501E0,4.529648728E0
1.506204821E1,2.449506226E0,2.595901794E0,-2.683619385E0,4.465489881E0
1.507201621E1,2.385888519E0,2.991678772E0,-2.073188782E0,4.352093476E0
1.508198421E1,1.892364807E0,3.420237579E0,-1.459165649E0,4.172317588E0
1.509195321E1,1.198557587E0,3.711082764E0,-8.762777710E-1,3.997066212E0
1.510192121E1,3.873944092E-1,3.832180939E0,-4.724176025E-1,3.880575159E0
1.511188921E1,-4.114942932E-1,3.854783936E0,-2.359094238E-1,3.883856331E0
1.512185821E1,-1.088237000E0,3.835174713E0,-1.643582153E-1,3.989967227E0
1.513182621E1,-1.547481995E0,3.736080780E0,-2.386038208E-1,4.050917415E0
1.514179421E1,-1.766626282E0,3.506458282E0,-3.788621521E-1,3.944585483E0
1.515176221E1,-1.855092316E0,3.242407379E0,-4.846920776E-1,3.766895210E0
1.516173121E1,-1.975142670E0,2.956501923E0,-5.321434021E-1,3.595172984E0
1.517169921E1,-2.059417419E0,2.509082336E0,-5.890251160E-1,3.299036960E0
1.518166721E1,-2.060016174E0,2.034419403E0,-6.689588928E-1,2.971537472E0
1.519163621E1,-2.309696960E0,1.646725616E0,-5.584886169E-1,2.891075032E0
1.520160421E1,-2.793939972E0,1.223555603E0,-3.478765869E-1,3.069887131E0
1.521157221E1,-3.506458282E0,5.824388123E-1,-2.104623413E-1,3.560727321E0
1.522154121E1,-4.588707733E0,-3.847000122E-1,-2.526745605E-1,4.611732559E0
1.523150921E1,-6.180497589E0,-2.085612946E0,-5.704637146E-1,6.547805790E0
1.524147721E1,-8.162376251E0,-4.787494354E0,-9.601034546E-1,9.511376709E0
1.525144621E1,-1.029648834E1,-8.329877930E0,-1.523382111E0,1.333136270E1
1.526141421E1,-1.365984421E1,-1.328158081E1,-2.159858551E0,1.917437669E1
1.527138221E1,-1.747046997E1,-2.005529480E1,-2.060465240E0,2.667728786E1
1.528135021E1,-2.131702103E1,-2.623624146E1,-8.915460205E-1,3.381642508E1
1.529131921E1,-2.459714996E1,-3.090054199E1,1.206042023E0,3.951351439E1
1.530128721E1,-2.600108047E1,-3.358850235E1,3.745211792E0,4.264118065E1
1.531125521E1,-2.651930283E1,-3.506503189E1,5.950875092E0,4.436488249E1
1.532122421E1,-2.543031738E1,-3.438125381E1,7.366181946E0,4.339391999E1
1.533119221E1,-2.391322220E1,-3.185076599E1,6.700067139E0,4.038817141E1
1.534116021E1,-2.307272003E1,-2.982158569E1,4.121379547E0,3.792971332E1
1.535112921E1,-2.250031036E1,-2.817156693E1,-1.960922241E-2,3.605414725E1
1.536109721E1,-2.134097122E1,-2.649205948E1,-4.534221039E0,3.431946137E1
1.537106521E1,-1.884715714E1,-2.439656708E1,-8.414901123E0,3.195650760E1
1.538103421E1,-1.575743225E1,-2.147733765E1,-1.121647522E1,2.890297597E1
1.539100221E1,-1.309671524E1,-1.782478317E1,-1.234961884E1,2.533298108E1
1.540097021E1,-1.135688324E1,-1.391820694E1,-1.186447769E1,2.152814698E1
1.541093821E1,-1.018811371E1,-1.000175125E1,-1.015218842E1,1.751855070E1
1.542090721E1,-9.067843323E0,-6.225104828E0,-7.873776398E0,1.352679073E1
1.543087521E1,-7.978708191E0,-2.874023438E0,-5.873336334E0,1.031580704E1
1.544084321E1,-7.263196106E0,-1.368154907E-1,-4.369862823E0,8.477525420E0
1.545081221E1,-6.818919983E0,1.872605896E0,-3.281625824E0,7.795728999E0
1.546078021E1,-6.247707825E0,3.638932800E0,-2.343526611E0,7.600513270E0
1.547074821E1,-5.481151886E0,4.963677979E0,-1.694476318E0,7.586328168E0
1.548071721E1,-4.603377228E0,5.591921539E0,-1.421144714E0,7.381078560E0
1.549068521E1,-3.537892914E0,5.636977844E0,-1.474882965E0,6.816706334E0
1.550065321E1,-2.366428986E0,5.220543823E0,-1.750908966E0,5.993308449E0
1.551062121E1,-1.206491089E0,4.609065399E0,-1.992656250E0,5.164279575E0
1.552059021E1,5.658233643E-2,4.039050751E0,-2.094594269E0,4.550215124E0
1.553055833E1,1.212179260E0,3.460054779E0,-2.165696411E0,4.258121485E0
1.554052633E1,1.822759552E0,2.923570404E0,-1.973795471E0,3.970589988E0
1.555049533E1,1.994153137E0,2.644700317E0,-1.419348450E0,3.603558869E0
1.556046333E1,1.972148895E0,2.675685883E0,-6.524931335E-1,3.387390367E0
1.557043133E1,1.866019592E0,2.868784332E0,1.486408997E-1,3.425499494E0
1.558040033E1,1.701511688E0,3.121159515E0,8.235873413E-1,3.648982715E0
1.559036833E1,1.439706116E0,3.280877380E0,1.317111053E0,3.817288516E0
1.560033633E1,1.070573730E0,3.254532166E0,1.640289001E0,3.798507041E0
1.561030533E1,5.673202515E-1,3.049907684E0,1.834435272E0,3.604017469E0
1.562027333E1,-8.756790161E-2,2.781366119E0,1.930685120E0,3.386917575E0
1.563024133E1,-7.276368713E-1,2.569706268E0,1.899100800E0,3.277106890E0
1.564020933E1,-1.279838562E0,2.406545563E0,1.773212585E0,3.251727412E0
1.565017833E1,-1.626068573E0,2.320923615E0,1.603615265E0,3.256127661E0
1.566014633E1,-1.828447723E0,2.309696960E0,1.443448334E0,3.280467073E0
1.567011433E1,-1.943258972E0,2.304757233E0,1.291663971E0,3.279719065E0
1.568008333E1,-2.030377808E0,2.301913147E0,1.132694550E0,3.271732740E0
1.569005133E1,-2.116299133E0,2.260449371E0,9.779164124E-1,3.247256364E0
1.570001933E1,-2.287692719E0,2.173480225E0,8.119116211E-1,3.258336192E0
1.570998833E1,-2.477348328E0,1.999541931E0,6.409671021E-1,3.247500808E0
1.571995633E1,-2.770738220E0,1.754202118E0,5.153782654E-1,3.319612946E0
1.572992433E1,-3.231180725E0,1.310225372E0,2.655477905E-1,3.496817844E0
1.573989233E1,-3.927532654E0,5.959107971E-1,-3.008743286E-2,3.972597095E0
1.574986133E1,-4.917424164E0,-3.695814514E-1,-2.616558838E-1,4.938229911E0
1.575982933E1,-6.197113037E0,-1.534309387E0,-7.080276489E-1,6.423365040E0
1.576979733E1,-7.761809235E0,-3.215313721E0,-1.524579620E0,8.538633845E0
1.577976633E1,-9.925709381E0,-5.703589325E0,-2.417772217E0,1.170026754E1
1.578973433E1,-1.268252655E1,-9.414372711E0,-3.216660919E0,1.611905086E1
1.579970233E1,-1.592029358E1,-1.482112930E1,-3.417543182E0,2.201820208E1
1.580967133E1,-1.906450516E1,-2.170067322E1,-2.152224426E0,2.896561142E1
1.581963933E1,-1.908336594E1,-2.717538849E1,1.569037170E0,3.324362304E1
1.582960733E1,-1.723994934E1,-2.999851776E1,4.951852570E0,3.495207812E1
1.583957633E1,-1.706705887E1,-3.017095917E1,6.469696198E0,3.526227792E1
1.584954433E1,-1.902184387E1,-3.022379929E1,7.186555481E0,3.642739583E1
1.585951233E1,-2.203268280E1,-2.950005432E1,7.220085754E0,3.752095354E1
1.586948033E1,-2.562955307E1,-2.840553040E1,5.943540344E0,3.871787468E1
1.587944933E1,-2.770094559E1,-2.697211121E1,4.641398163E0,3.894072093E1
1.588941733E1,-2.731714371E1,-2.513752625E1,3.215613098E0,3.726206830E1
1.589938533E1,-2.541624664E1,-2.365470978E1,1.151405640E0,3.473984201E1
1.590935433E1,-2.290177551E1,-2.210647934E1,-1.093326416E0,3.184938167E1
1.591932233E1,-2.013657578E1,-2.010708710E1,-2.980003052E0,2.861218366E1
1.592929033E1,-1.697006058E1,-1.793779816E1,-4.420008545E0,2.508553436E1
1.593925933E1,-1.374277176E1,-1.527274017E1,-5.398523712E0,2.124298534E1
1.594922733E1,-1.121647522E1,-1.205997116E1,-5.434449005E0,1.734316744E1
1.595919533E1,-9.497150574E0,-8.862470398E0,-4.665947113E0,1.380254734E1
1.596916333E1,-8.634644165E0,-6.113586731E0,-3.621119843E0,1.118237593E1
1.597913233E1,-8.281678162E0,-3.718716888E0,-2.669548645E0,9.462639084E0
1.598910033E1,-8.232430573E0,-1.358125763E0,-2.069596252E0,8.596548573E0
1.599906833E1,-7.815846863E0,8.503816223E-1,-1.768422546E0,8.058407373E0
1.600903733E1,-7.377857666E0,2.567460938E0,-1.723964996E0,7.999793417E0
1.601900533E1,-7.029831390E0,3.792962494E0,-1.885030060E0,8.207218298E0
1.602897333E1,-6.580914917E0,4.389621735E0,-2.208357697E0,8.213042301E0
1.603894233E1,-5.946833496E0,4.195026398E0,-2.520907745E0,7.701821276E0
1.604891033E1,-5.166057129E0,3.472329254E0,-2.624492340E0,6.755233286E0
1.605887833E1,-4.269421692E0,2.563269653E0,-2.380200348E0,5.519390056E0
1.606884733E1,-3.168910217E0,1.791474609E0,-1.918111267E0,4.114671806E0
1.607881533E1,-1.922901306E0,1.254990234E0,-1.444945221E0,2.713008775E0
1.608878333E1,-8.304730225E-1,8.482859802E-1,-1.024319916E0,1.567962319E0
1.609875133E1,1.490899658E-1,5.920188904E-1,-7.476951599E-1,9.652783208E-1
1.610872033E1,1.093476105E0,5.677693176E-1,-5.638774109E-1,1.354994363E0
1.611868833E1,2.012564850E0,7.879614258E-1,-4.692741394E-1,2.211677802E0
1.612865633E1,2.956352234E0,1.178499298E0,-5.713618469E-1,3.233470811E0
1.613862533E1,3.925886078E0,1.605261841E0,-8.966354370E-1,4.335135774E0
1.614859333E1,4.774920502E0,1.933828583E0,-1.396595764E0,5.337606066E0
1.615856133E1,5.527106323E0,2.268382874E0,-2.047741699E0,6.315671875E0
1.616853033E1,6.007906494E0,2.576591949E0,-2.626138916E0,7.044882690E0
1.617849833E1,6.128405914E0,2.753524017E0,-2.841690674E0,7.294824155E0
1.618846633E1,6.117778015E0,2.835104370E0,-2.632575531E0,7.238472115E0
1.619843533E1,6.035898285E0,2.950963440E0,-2.242786102E0,7.083102627E0
1.620840333E1,5.915997620E0,3.196452942E0,-1.848356323E0,6.973719262E0
1.621837133E1,5.654790802E0,3.511847076E0,-1.527723083E0,6.829616880E0
1.622833933E1,5.241649933E0,3.664978638E0,-1.261127472E0,6.519003370E0
1.623830833E1,4.761298828E0,3.611390076E0,-1.017733612E0,6.062003507E0
1.624827633E1,4.091741180E0,3.423530731E0,-8.405021667E-1,5.400865898E0
1.625824433E1,3.235970764E0,2.875819702E0,-6.680607605E-1,4.380428167E0
1.626821333E1,2.110012207E0,1.986968079E0,-4.252656555E-1,2.929341997E0
1.627818133E1,4.327500916E-1,7.940986633E-1,-1.513352966E-1,9.169338585E-1
1.628814933E1,-1.875749359E0,-7.405101013E-1,7.214996338E-2,2.017918850E0
1.629811833E1,-5.280569000E0,-3.100352783E0,1.624122620E-1,6.125599896E0
1.630808633E1,-1.064406555E1,-7.164401550E0,-2.270777893E-1,1.283262816E1
1.631805433E1,-1.692230988E1,-1.397778305E1,-8.809181213E-1,2.196631529E1
1.632802233E1,-2.289938049E1,-2.194481552E1,3.586541748E-1,3.171884594E1
1.633799133E1,-2.761292862E1,-2.811722992E1,3.636388092E0,3.957620199E1
1.634795933E1,-2.894890045E1,-3.010509613E1,6.860683136E0,4.232522443E1
1.635792733E1,-3.105337418E1,-3.170481949E1,8.010292511E0,4.509625719E1
1.636789633E1,-3.354509262E1,-3.359883087E1,8.727750549E0,4.827347413E1
1.637786433E1,-3.328792740E1,-3.143463135E1,1.052147049E1,4.697790438E1
1.638783233E1,-3.230821472E1,-2.842379242E1,1.099658249E1,4.441460954E1
1.639780133E1,-3.145319275E1,-2.594240250E1,9.897118835E0,4.195550670E1
1.640776933E1,-3.017889267E1,-2.341311218E1,8.426127777E0,3.911443486E1
1.641773733E1,-2.827724716E1,-2.157882660E1,6.667584686E0,3.618984871E1
1.642770633E1,-2.512914368E1,-2.017774017E1,4.325554962E0,3.251654173E1
1.643767433E1,-2.039688446E1,-1.907603119E1,1.327289886E0,2.795871170E1
1.644764233E1,-1.474987747E1,-1.756716888E1,-1.873953094E0,2.301469114E1
1.645761033E1,-9.808054047E0,-1.521136780E1,-4.046535187E0,1.854610691E1
1.646757933E1,-6.951843567E0,-1.227252914E1,-5.066813507E0,1.498718452E1
