"Time (s)","Acceleration x (m/s^2)","Acceleration y (m/s^2)","Acceleration z (m/s^2)","Absolute acceleration (m/s^2)"
6.464333339E-3,3.488196259E0,6.745572510E0,5.724695435E0,9.510120895E0
1.643533334E-2,3.464994507E0,6.634952545E0,5.159171448E0,9.090975318E0
2.640533334E-2,3.331172791E0,6.579567719E0,5.407804413E0,9.145040847E0
3.637533334E-2,3.127895508E0,6.638994141E0,6.261179810E0,9.646882715E0
4.634633334E-2,2.823728027E0,6.684948578E0,7.191794586E0,1.021684329E1
5.631633334E-2,2.375110931E0,6.452781372E0,8.028554535E0,1.057058311E1
6.628633333E-2,1.981429596E0,6.170767822E0,8.533005524E0,1.071525184E1
7.625733333E-2,1.875599670E0,6.051016846E0,8.685388641E0,1.075028627E1
8.622733334E-2,1.891766052E0,6.033054199E0,8.611143036E0,1.068308505E1
9.619733334E-2,1.861379242E0,6.061345367E0,8.212671661E0,1.037557787E1
1.061683333E-1,1.754651184E0,6.049370270E0,7.673492889E0,9.927546251E0
1.161383333E-1,1.835932159E0,6.135590973E0,7.140451355E0,9.591776115E0
1.261083333E-1,1.936073914E0,6.243965607E0,7.002588043E0,9.579756156E0
1.360793333E-1,1.880389709E0,6.109694824E0,7.197033691E0,9.626085926E0
1.460493333E-1,1.538949738E0,5.956712952E0,7.564220123E0,9.750293409E0
1.560203333E-1,1.131047974E0,5.964796143E0,7.967631226E0,1.001704597E1
1.659903333E-1,9.548643494E-1,6.091881866E0,8.252039795E0,1.030140531E1
1.759603333E-1,1.091679840E0,6.240223389E0,8.417146454E0,1.053472863E1
1.859313333E-1,1.274150391E0,6.337071991E0,8.342751160E0,1.055383521E1
1.959013333E-1,1.282233582E0,6.351591797E0,8.022417297E0,1.031242070E1
2.058713333E-1,1.303190002E0,6.341562653E0,7.609276428E0,9.990736150E0
2.158423333E-1,1.455573120E0,6.373146973E0,7.261250153E0,9.770437514E0
2.258123333E-1,1.498084717E0,6.377188568E0,7.058272247E0,9.629745530E0
2.357823333E-1,1.366957397E0,6.290219421E0,6.928641815E0,9.457352182E0
2.457533333E-1,1.433868256E0,6.137087860E0,6.862030334E0,9.317042765E0
2.557233333E-1,1.710043945E0,6.129453735E0,6.833290100E0,9.337467911E0
2.656933333E-1,1.826651459E0,6.176306305E0,6.691684570E0,9.287736942E0
2.756643333E-1,1.670675812E0,6.070177002E0,6.674769745E0,9.175552171E0
2.856343333E-1,1.511556702E0,5.918841705E0,7.003186798E0,9.293121979E0
2.956043333E-1,1.223705292E0,5.741011505E0,7.464228058E0,9.495860585E0
3.055753333E-1,8.729846191E-1,5.592220917E0,7.838749237E0,9.668558658E0
3.155453333E-1,1.772314453E-1,5.541476440E0,8.025560760E0,9.754434768E0
3.255153333E-1,-1.594783630E0,4.935536499E0,8.457861786E0,9.921606793E0
3.354863333E-1,-2.267634430E0,4.675976257E0,8.154293060E0,9.669509563E0
3.454563333E-1,-2.517015839E0,4.727169800E0,6.228397980E0,8.214282954E0
3.554273333E-1,-1.747466125E0,5.716312866E0,6.946903839E0,9.164570017E0
3.653973333E-1,-1.633403320E0,5.985902252E0,5.810317383E0,8.500518824E0
3.753673333E-1,-1.198707275E0,5.360802155E0,6.114035797E0,8.219278107E0
3.853383333E-1,-1.521436157E0,4.739444275E0,7.161707153E0,8.721648317E0
3.953083333E-1,-2.338437195E0,4.501888275E0,7.771389313E0,9.280613040E0
4.052783333E-1,-2.983595581E0,4.438569946E0,8.058043213E0,9.671339420E0
4.152493333E-1,-4.151766357E0,4.413721619E0,7.179669800E0,9.394985942E0
4.252193333E-1,-4.224365387E0,4.545747070E0,7.241640930E0,9.536794153E0
4.351893333E-1,-3.529959412E0,4.017345886E0,7.901019745E0,9.540743914E0
4.451603333E-1,-3.372187500E0,3.997736664E0,6.977739716E0,8.720229269E0
4.551303333E-1,-2.416125641E0,3.488944702E0,7.236701202E0,8.389293328E0
4.651003333E-1,-1.357227631E0,2.935545502E0,8.420589294E0,9.020300344E0
4.750713333E-1,-1.237027588E0,3.402424622E0,9.256451111E0,9.939246336E0
4.850413333E-1,-1.730251923E0,3.536246338E0,1.003288651E1,1.077764452E1
4.950113333E-1,-1.918410645E0,3.020568695E0,1.044782364E1,1.104360238E1
5.049823333E-1,-2.668650513E0,2.577490082E0,1.067100952E1,1.129759244E1
5.149523333E-1,-3.861519928E0,2.381846924E0,1.134460876E1,1.221821096E1
5.249223333E-1,-3.611539764E0,2.957699432E0,1.131107849E1,1.223649059E1
5.348933333E-1,-2.647843781E0,3.245700531E0,1.011177246E1,1.094502585E1
5.448633333E-1,-2.134860535E0,3.573668518E0,8.600515137E0,9.554977593E0
5.548333333E-1,-1.851649475E0,3.088377686E0,7.913593597E0,8.694345641E0
5.648043333E-1,-2.402953033E0,2.309397583E0,8.171058197E0,8.824607217E0
5.747743333E-1,-2.646047516E0,2.437381439E0,8.097261658E0,8.860476403E0
5.847453333E-1,-2.178569641E0,2.724035339E0,7.570806427E0,8.335684985E0
5.947153333E-1,-1.243164825E0,2.950214996E0,7.204667816E0,7.883937192E0
6.046853333E-1,-6.068380737E-1,3.140768738E0,7.255561981E0,7.929430016E0
6.146563333E-1,-5.760021973E-1,3.234473877E0,7.669301605E0,8.343367839E0
6.246267083E-1,-2.665956116E-1,2.950963440E0,7.984845428E0,8.516866499E0
6.345967083E-1,-3.047662354E-1,2.349663849E0,7.589068451E0,7.950330975E0
6.445677083E-1,-3.233276367E-1,1.874701538E0,6.920708313E0,7.177412498E0
6.545377083E-1,-3.592529297E-2,1.686243439E0,6.760691071E0,6.967901500E0
6.645077083E-1,-3.146456909E-1,1.912273407E0,6.636898499E0,6.914059095E0
6.744787083E-1,-2.384241943E0,3.332969055E0,7.024292908E0,8.132280321E0
6.844487083E-1,-4.196373596E0,4.012705536E0,8.269104309E0,1.010393206E1
6.944187083E-1,-4.099524994E0,4.104913788E0,9.279952240E0,1.094412792E1
7.043897083E-1,-4.116888885E0,3.631747742E0,8.979077911E0,1.052436249E1
7.143597083E-1,-4.300407257E0,2.999911652E0,8.171058197E0,9.708715907E0
7.243297083E-1,-3.127596130E0,3.038531342E0,7.582182770E0,8.746657980E0
7.343007083E-1,-1.701062622E0,3.406765594E0,7.120243378E0,8.074498846E0
7.442707083E-1,-1.326691132E0,3.374732208E0,7.109914856E0,7.981216455E0
7.542407083E-1,-4.381388855E-1,3.530109100E0,7.216044159E0,8.045180498E0
7.642117083E-1,3.062631226E-1,3.821403351E0,8.720415802E0,9.525889587E0
7.741817083E-1,-2.345771942E0,3.272195435E0,8.926686859E0,9.792632294E0
7.841517083E-1,-4.659360809E0,2.821033630E0,7.995772705E0,9.674722479E0
7.941227083E-1,-4.125870209E0,2.893183594E0,7.597750397E0,9.116969199E0
8.040927083E-1,-3.348985748E0,3.351979523E0,7.051985321E0,8.495997248E0
8.140627083E-1,-2.795436859E0,3.552562408E0,6.483018494E0,7.903460994E0
8.240337083E-1,-2.490670624E0,3.380570068E0,5.698050842E0,7.078098441E0
8.340037083E-1,-1.833537140E0,2.969973907E0,4.967120819E0,6.070823065E0
8.439737083E-1,-1.004710693E0,2.468067627E0,4.644990692E0,5.355066752E0
8.539447083E-1,-8.526269531E-1,2.113155670E0,5.055586853E0,5.545390702E0
8.639147083E-1,-1.062789917E0,1.946552124E0,5.884862366E0,6.288894390E0
8.738857083E-1,-1.551822968E0,1.434167633E0,6.653064880E0,6.980563274E0
8.838557083E-1,-1.874551849E0,-8.008346558E-2,6.753955078E0,7.009726613E0
8.938257083E-1,-2.696941681E0,-2.609074402E-1,6.926995239E0,7.438066292E0
9.037967083E-1,-2.714155884E0,2.297721863E-1,9.724677429E0,1.009894987E1
9.137667083E-1,-2.936443634E0,9.087602234E-1,7.695048065E0,8.286272448E0
9.237367083E-1,-3.723955994E0,-4.760101318E-2,6.825206909E0,7.775188966E0
9.337077083E-1,-4.176315308E0,-8.454418945E-1,6.613846436E0,7.867613756E0
9.436777083E-1,-4.053121490E0,-1.402583313E0,6.981631622E0,8.193791178E0
9.536477083E-1,-2.882855072E0,-1.654958496E0,8.547525330E0,9.171146616E0
9.636187083E-1,-2.811453552E0,-1.922901306E0,9.001381531E0,9.624276075E0
9.735887083E-1,-3.774401093E0,-2.236349487E0,9.250164185E0,1.023781715E1
9.835587083E-1,-4.483626251E0,-2.736160126E0,9.600735168E0,1.094365535E1
9.935297083E-1,-4.478686523E0,-3.386557617E0,9.380093994E0,1.093222616E1
1.003499708E0,-4.244573364E0,-3.369193726E0,7.871381378E0,9.556490685E0
1.013469708E0,-3.829037476E0,-3.191064148E0,6.211632843E0,7.964220047E0
1.023440708E0,-3.908971252E0,-3.486399994E0,4.535867615E0,6.928862547E0
1.033410708E0,-4.262685699E0,-4.212390289E0,3.216062164E0,6.801307019E0
1.043380708E0,-4.891977081E0,-4.916825409E0,2.675236816E0,7.433942688E0
1.053351708E0,-5.711223450E0,-5.405259705E0,2.926863556E0,8.390556361E0
1.063321708E0,-6.713239746E0,-5.685476990E0,3.642525330E0,9.521566429E0
1.073291708E0,-7.992329865E0,-5.973777466E0,4.364923096E0,1.089109304E1
1.083262708E0,-9.300758972E0,-6.239624634E0,4.783752136E0,1.217872397E1
1.093232708E0,-1.052805679E1,-5.971382446E0,4.978347473E0,1.308744940E1
1.103202708E0,-1.153516251E1,-5.494025116E0,5.046156464E0,1.373710235E1
1.113173708E0,-1.228525269E1,-5.352868652E0,4.502037964E0,1.413679533E1
1.123143708E0,-1.299627411E1,-5.694158936E0,3.623365173E0,1.464429452E1
1.133114708E0,-1.338127350E1,-6.240822144E0,2.921923828E0,1.505137802E1
1.143084708E0,-1.337678284E1,-6.809489594E0,2.543810120E0,1.522427133E1
1.153054708E0,-1.323502762E1,-7.475604401E0,2.555336151E0,1.541364201E1
1.163025708E0,-1.287487656E1,-7.870183868E0,3.034789124E0,1.539195197E1
1.172995708E0,-1.268462219E1,-7.916138306E0,3.627706146E0,1.538587462E1
1.182965708E0,-1.268641846E1,-8.004903717E0,3.992497559E0,1.552300659E1
1.192936708E0,-1.271081772E1,-8.167315979E0,4.075574799E0,1.564865002E1
1.202906708E0,-1.289957520E1,-8.151748352E0,4.165088654E0,1.581764853E1
1.212876708E0,-1.335298233E1,-7.899522858E0,4.189637604E0,1.607039706E1
1.222847708E0,-1.357676697E1,-7.331304474E0,4.112098846E0,1.596828054E1
1.232817708E0,-1.389934616E1,-6.566544800E0,3.766617279E0,1.582715199E1
1.242787708E0,-1.418689819E1,-5.723048859E0,2.926264801E0,1.557512100E1
1.252758708E0,-1.399394943E1,-5.165757751E0,1.728006592E0,1.501671338E1
1.262728708E0,-1.343201797E1,-4.676275635E0,5.788462830E-1,1.423452576E1
1.272698708E0,-1.321122711E1,-4.175716553E0,-3.923341370E-1,1.386099046E1
1.282669708E0,-1.289328827E1,-4.095782776E0,-1.179247742E0,1.357950456E1
1.292639708E0,-1.224932739E1,-4.383334808E0,-1.582060089E0,1.310582160E1
1.302609708E0,-1.139804764E1,-4.606670380E0,-1.533111877E0,1.238900052E1
1.312580708E0,-1.127036316E1,-3.825744324E0,-1.076112213E0,1.195054069E1
1.322550708E0,-1.106798401E1,-3.353775787E0,-8.406518555E-1,1.159546366E1
1.332520708E0,-1.069136719E1,-3.443888397E0,-6.936575317E-1,1.125374873E1
1.342491708E0,-1.053913376E1,-3.817062378E0,-6.029461670E-1,1.122527726E1
1.352461708E0,-1.011671219E1,-4.006717987E0,-4.689747620E-1,1.089135400E1
1.362431708E0,-9.455537109E0,-4.062851257E0,-3.252735901E-1,1.029658901E1
1.372402708E0,-9.068142700E0,-4.161346436E0,-2.040257263E-1,9.979461042E0
1.382372708E0,-8.979526978E0,-4.215982819E0,-1.965412903E-1,9.921947609E0
1.392342708E0,-8.953032074E0,-4.135599976E0,-3.004252625E-1,9.866621804E0
1.402313708E0,-9.057814178E0,-4.054468689E0,-4.641847229E-1,9.934695843E0
1.412283708E0,-9.278155975E0,-4.095483398E0,-7.918533325E-1,1.017271814E1
1.422254708E0,-9.478439484E0,-4.123774567E0,-9.626481628E-1,1.038137868E1
1.432224708E0,-9.659263458E0,-3.900738373E0,-9.041198730E-1,1.045631690E1
1.442194708E0,-9.762698364E0,-3.735182648E0,-7.454498291E-1,1.047938759E1
1.452165708E0,-9.856253815E0,-3.674259338E0,-4.960684204E-1,1.053052728E1
1.462135708E0,-9.955796814E0,-3.679648132E0,-2.896476746E-1,1.061798457E1
1.472105708E0,-9.864187317E0,-3.835773468E0,-2.243833923E-1,1.058610870E1
1.482076708E0,-9.655670929E0,-3.951033783E0,-1.422042847E-1,1.043373716E1
1.492046708E0,-9.395811310E0,-3.968846741E0,-1.594184875E-1,1.020090334E1
1.502016708E0,-9.297914886E0,-4.084406433E0,-3.037184143E-1,1.016001191E1
1.511987708E0,-9.317224731E0,-4.325554962E0,-4.977149963E-1,1.028439705E1
1.521957708E0,-9.332343292E0,-4.566254425E0,-5.993536377E-1,1.040685042E1
1.531927708E0,-9.354646912E0,-4.798122253E0,-6.406677246E-1,1.053289377E1
1.541898708E0,-9.319470062E0,-5.096302185E0,-6.990463257E-1,1.064488065E1
1.551868708E0,-9.344917145E0,-5.431604919E0,-7.478448486E-1,1.083462414E1
1.561838708E0,-9.427395630E0,-5.683231659E0,-7.509883118E-1,1.103353497E1
1.571809708E0,-9.515412598E0,-5.906417542E0,-8.328680420E-1,1.123042805E1
1.581779708E0,-9.640702057E0,-6.099815369E0,-9.707313538E-1,1.144959401E1
1.591749708E0,-9.893975372E0,-6.316714325E0,-1.095871124E0,1.178951068E1
1.601720708E0,-1.018317398E1,-6.617438965E0,-1.202449493E0,1.220382791E1
1.611690708E0,-1.025831772E1,-6.916367340E0,-1.218017120E0,1.243192605E1
1.621660667E0,-1.020787262E1,-7.101532288E0,-1.207239532E0,1.249359242E1
1.631631667E0,-1.027044250E1,-7.262148285E0,-1.238973541E0,1.263945578E1
1.641601667E0,-1.024170227E1,-7.442373505E0,-1.310524750E0,1.272787743E1
1.651571667E0,-1.018511993E1,-7.990084534E0,-1.507066040E0,1.303262702E1
1.661542667E0,-1.017299515E1,-8.538693695E0,-1.678459625E0,1.338717099E1
1.671512667E0,-9.940678253E0,-8.733738098E0,-1.807341614E0,1.335521430E1
1.681482667E0,-9.478888550E0,-8.513545990E0,-1.804647217E0,1.286804356E1
1.691453667E0,-8.918903046E0,-7.961493988E0,-1.661544800E0,1.207033343E1
1.701423667E0,-8.395740967E0,-7.411088562E0,-1.424138489E0,1.128897119E1
1.711393667E0,-8.023614807E0,-7.216193848E0,-1.300345917E0,1.086934900E1
1.721364667E0,-7.668403473E0,-7.232060852E0,-1.212179260E0,1.061020709E1
1.731334667E0,-7.322921906E0,-7.350913696E0,-1.165027313E0,1.044118796E1
1.741304667E0,-7.137607269E0,-7.668852539E0,-1.288520508E0,1.055542618E1
1.751275667E0,-6.966962128E0,-7.941585388E0,-1.456321564E0,1.066434303E1
1.761245667E0,-6.803801422E0,-8.140671387E0,-1.751507721E0,1.075314018E1
1.771215667E0,-6.522087250E0,-8.244255981E0,-2.027683411E0,1.070592727E1
1.781186667E0,-6.150559845E0,-8.176297302E0,-2.254461823E0,1.047682309E1
1.791156667E0,-5.874982910E0,-8.024063873E0,-2.548300781E0,1.026619998E1
1.801127667E0,-5.720504150E0,-7.874375153E0,-2.772833862E0,1.012020550E1
1.811097667E0,-5.783523102E0,-7.666457520E0,-2.864293671E0,1.002137159E1
1.821067667E0,-5.873336334E0,-7.498955841E0,-2.880310364E0,9.951211293E0
1.831038667E0,-5.827830963E0,-7.361092529E0,-2.801125031E0,9.797734350E0
1.841008667E0,-5.691614227E0,-7.267686768E0,-2.694995728E0,9.616483008E0
1.850978667E0,-5.454357605E0,-7.229216766E0,-2.676883392E0,9.443373160E0
1.860949667E0,-5.101391602E0,-7.245233459E0,-2.553839264E0,9.221697194E0
1.870919667E0,-4.710704041E0,-7.227121124E0,-2.325863342E0,8.934856047E0
1.880889667E0,-4.352049866E0,-7.121291199E0,-1.958227844E0,8.572501540E0
1.890860667E0,-4.086951141E0,-6.913972321E0,-1.572779388E0,8.184119860E0
1.900830667E0,-3.847149811E0,-6.628515930E0,-1.176852722E0,7.753887247E0
1.910800667E0,-3.708687744E0,-6.334377594E0,-6.957531738E-1,7.373111742E0
1.920771667E0,-3.606899414E0,-6.072721710E0,-2.171983337E-1,7.066459330E0
1.930741667E0,-3.533551941E0,-5.926475830E0,2.281256104E-1,6.903705264E0
1.940711667E0,-3.437601471E0,-5.867797852E0,6.047424316E-1,6.827435017E0
1.950682667E0,-3.299438782E0,-5.726192322E0,8.858578491E-1,6.667857145E0
1.960652667E0,-3.252436523E0,-5.377866669E0,1.185834045E0,6.395779517E0
1.970622667E0,-3.347189484E0,-5.024451599E0,1.333726501E0,6.182848671E0
1.980593667E0,-3.654500427E0,-4.731810150E0,1.241967316E0,6.106380555E0
1.990563667E0,-4.056564331E0,-4.506528625E0,1.021026764E0,6.148740528E0
2.000533667E0,-4.490811310E0,-4.329596558E0,7.933502197E-1,6.288258673E0
2.010504667E0,-4.957241364E0,-4.188440094E0,5.215155029E-1,6.510702787E0
2.020474667E0,-5.542075195E0,-4.092339935E0,2.944377136E-1,6.895544734E0
2.030444667E0,-6.107599182E0,-4.110452271E0,5.089416504E-3,7.361970629E0
2.040415667E0,-6.492897949E0,-4.158652039E0,-1.811233521E-1,7.712646512E0
2.050385667E0,-6.858138428E0,-4.260290680E0,-3.176394653E-1,8.079915482E0
2.060355667E0,-7.135960693E0,-4.471800842E0,-5.667214966E-1,8.440385717E0
2.070326667E0,-7.231911163E0,-4.681215363E0,-8.267308044E-1,8.654351516E0
2.080296667E0,-7.432643738E0,-4.805756378E0,-1.018032990E0,8.909314141E0
2.090266667E0,-7.790399780E0,-5.018763428E0,-1.291065216E0,9.356557298E0
2.100237667E0,-8.097710724E0,-5.287754059E0,-1.514251099E0,9.789086696E0
2.110207667E0,-8.369994507E0,-5.550158386E0,-1.639241180E0,1.017586251E1
2.120177667E0,-8.829239502E0,-5.840105438E0,-1.648970947E0,1.071360849E1
2.130148667E0,-9.255852356E0,-6.115233307E0,-1.600471802E0,1.120840717E1
2.140118667E0,-9.701625366E0,-6.271358643E0,-1.542242889E0,1.165461227E1
2.150089667E0,-1.001207977E1,-6.266269226E0,-1.409468994E0,1.189514499E1
2.160059667E0,-1.030576904E1,-6.047274628E0,-1.311273193E0,1.202072558E1
2.170029667E0,-1.091440338E1,-5.885161743E0,-1.328188019E0,1.247090267E1
2.180000667E0,-1.156704620E1,-5.771248627E0,-1.404978333E0,1.300299322E1
2.189970667E0,-1.207269470E1,-5.672005005E0,-1.509011993E0,1.342381151E1
2.199940667E0,-1.241548187E1,-5.537883911E0,-1.599124603E0,1.368829967E1
2.209911667E0,-1.273611511E1,-5.467230835E0,-1.646875305E0,1.395748686E1
2.219881667E0,-1.295540909E1,-5.391638031E0,-1.733096008E0,1.413916571E1
2.229851667E0,-1.295735504E1,-5.139262848E0,-1.749711456E0,1.404872103E1
2.239822667E0,-1.307276505E1,-4.894671478E0,-1.836530914E0,1.407934092E1
2.249792667E0,-1.360041779E1,-4.935985565E0,-2.042652283E0,1.461190425E1
2.259762667E0,-1.435978867E1,-5.346731415E0,-2.323767700E0,1.549809549E1
2.269733667E0,-1.524669434E1,-5.997727661E0,-2.445764008E0,1.656551197E1
2.279703667E0,-1.582943253E1,-6.405779114E0,-2.403252411E0,1.724472564E1
2.289673667E0,-1.569935303E1,-6.287674713E0,-2.282603302E0,1.706501733E1
2.299644667E0,-1.513442780E1,-5.759572906E0,-2.240241394E0,1.634754618E1
2.309614667E0,-1.444226715E1,-5.074747009E0,-2.485730896E0,1.550841693E1
2.319584667E0,-1.402538406E1,-4.475243683E0,-2.912044373E0,1.500730511E1
2.329555667E0,-1.397014893E1,-4.055516510E0,-3.302133179E0,1.491698223E1
2.339525667E0,-1.416175049E1,-3.939807129E0,-3.522474976E0,1.511572317E1
2.349495667E0,-1.444645844E1,-4.074826355E0,-3.579356689E0,1.543101311E1
2.359466667E0,-1.438793015E1,-4.379293213E0,-3.504961395E0,1.544265189E1
2.369436667E0,-1.366478394E1,-4.649331665E0,-3.031495972E0,1.474898548E1
2.379406667E0,-1.286095551E1,-4.810247040E0,-2.296075287E0,1.392173175E1
2.389377667E0,-1.219963074E1,-5.022655334E0,-1.704206085E0,1.330272059E1
2.399347667E0,-1.166075134E1,-5.206622772E0,-1.246607666E0,1.283105893E1
2.409317667E0,-1.133008896E1,-5.385351105E0,-1.001866608E0,1.258477886E1
2.419288667E0,-1.099298996E1,-5.517376556E0,-7.667056274E-1,1.232376200E1
2.429258667E0,-1.076950470E1,-5.452860718E0,-5.273533630E-1,1.208279864E1
2.439228667E0,-1.064915497E1,-5.326673126E0,-4.137396240E-1,1.191424058E1
2.449199667E0,-1.049572403E1,-5.222938843E0,-3.441343689E-1,1.172850125E1
2.459169667E0,-1.028421387E1,-5.123695221E0,-3.341052246E-1,1.149473505E1
2.469139667E0,-1.004695724E1,-5.017565918E0,-3.126997375E-1,1.123454933E1
2.479110667E0,-9.743837585E0,-4.964576111E0,-3.797602844E-1,1.094228517E1
2.489080667E0,-9.422904968E0,-4.920867004E0,-4.929249573E-1,1.064185346E1
2.499050667E0,-9.124275970E0,-4.860093384E0,-5.780978394E-1,1.035408696E1
2.509021667E0,-8.925040283E0,-4.836442566E0,-6.490502930E-1,1.017196083E1
2.518991667E0,-8.769663391E0,-4.971761169E0,-7.526348877E-1,1.010899918E1
2.528961667E0,-8.587342529E0,-5.088518372E0,-8.442443848E-1,1.001739584E1
2.538932667E0,-8.552764435E0,-5.163213043E0,-9.825567627E-1,1.003862372E1
2.548902667E0,-8.744066620E0,-5.273683319E0,-1.139879608E0,1.027471471E1
2.558873667E0,-9.043893127E0,-5.442232819E0,-1.308279419E0,1.063585897E1
2.568843667E0,-9.110354919E0,-5.516328735E0,-1.504072266E0,1.075596034E1
2.578813667E0,-9.033564606E0,-5.526058502E0,-1.738784180E0,1.073154148E1
2.588784667E0,-8.965605927E0,-5.518125000E0,-1.982028351E0,1.071262011E1
2.598754667E0,-8.939260712E0,-5.604345703E0,-2.214944000E0,1.078077222E1
2.608724667E0,-8.608897705E0,-5.741759949E0,-2.550695801E0,1.065771908E1
2.618695667E0,-8.342002716E0,-5.755681000E0,-2.813249817E0,1.051813898E1
2.628664833E0,-8.289461975E0,-5.693560181E0,-2.927312622E0,1.047382292E1
2.638634833E0,-8.259224854E0,-5.702391815E0,-2.982697449E0,1.047036540E1
2.648605833E0,-8.217761078E0,-5.831872559E0,-2.914289703E0,1.048977689E1
2.658575833E0,-8.173303528E0,-5.948779449E0,-2.618205414E0,1.044250291E1
2.668545833E0,-8.171058197E0,-6.144721985E0,-2.186503143E0,1.045488385E1
2.678516833E0,-8.208929443E0,-6.522686005E0,-1.773811340E0,1.063383101E1
2.688486833E0,-8.126600647E0,-6.829697571E0,-1.314416656E0,1.069645260E1
2.698456833E0,-7.905959473E0,-7.041357422E0,-9.074130249E-1,1.062583210E1
2.708427833E0,-7.689958649E0,-7.132517853E0,-5.771997070E-1,1.050435312E1
2.718397833E0,-7.596702576E0,-7.370223541E0,-2.698887634E-1,1.058786688E1
2.728367833E0,-7.338040466E0,-7.651039581E0,2.649490356E-2,1.060122382E1
2.738338833E0,-6.854096832E0,-7.671397247E0,3.767665100E-1,1.029421838E1
2.748308833E0,-6.547234955E0,-7.516469421E0,6.063890076E-1,9.986556251E0
2.758278833E0,-6.308631134E0,-7.330556030E0,7.716453552E-1,9.702129408E0
2.768249833E0,-6.152954865E0,-7.188501434E0,9.249266052E-1,9.507307487E0
2.778219833E0,-6.004164276E0,-7.038213959E0,1.059796143E0,9.311799625E0
2.788189833E0,-5.856122131E0,-6.900200958E0,1.223854980E0,9.132620691E0
2.798160833E0,-5.674250336E0,-6.745273132E0,1.387764130E0,8.923100122E0
2.808130833E0,-5.512586517E0,-6.589297485E0,1.542691956E0,8.728536529E0
2.818100833E0,-5.335355072E0,-6.425538025E0,1.744023285E0,8.532008549E0
2.828071833E0,-5.305267639E0,-6.281687164E0,1.883982239E0,8.435333273E0
2.838041833E0,-5.577102356E0,-6.437064056E0,1.826801147E0,8.710744330E0
2.848011833E0,-6.113287354E0,-7.124584351E0,1.678459625E0,9.536729584E0
2.857982833E0,-6.405479736E0,-7.905510406E0,1.572480011E0,1.029562814E1
2.867952833E0,-6.385870514E0,-8.353528748E0,1.517843628E0,1.062377683E1
2.877922833E0,-6.229146423E0,-8.497828674E0,1.500629425E0,1.064270858E1
2.887893833E0,-5.982758789E0,-8.380921783E0,1.498084717E0,1.040564801E1
2.897863833E0,-5.724396057E0,-8.003107452E0,1.511107635E0,9.954992988E0
2.907833833E0,-5.775290222E0,-7.579188995E0,1.472937012E0,9.641972123E0
2.917804833E0,-5.973478088E0,-7.251670074E0,1.331481171E0,9.489046393E0
2.927774833E0,-6.417454834E0,-7.083569641E0,1.170116730E0,9.629634394E0
2.937744833E0,-7.013066254E0,-7.048093414E0,9.544152832E-1,9.988474738E0
2.947715833E0,-7.774832153E0,-7.087012482E0,7.024891663E-1,1.054358819E1
2.957685833E0,-8.469238129E0,-7.099286957E0,3.643423462E-1,1.105715222E1
2.967655833E0,-8.935368805E0,-7.016958160E0,-5.658233643E-2,1.136141360E1
2.977626833E0,-9.474098511E0,-6.796167297E0,-5.757028198E-1,1.167381113E1
2.987596833E0,-9.957742767E0,-6.597680054E0,-1.278341675E0,1.201333345E1
2.997566833E0,-1.008437943E1,-6.422095184E0,-2.123783569E0,1.214283623E1
3.007537833E0,-9.881251831E0,-6.278094635E0,-3.006048889E0,1.208676714E1
3.017507833E0,-9.493108978E0,-6.121370544E0,-3.892056427E0,1.194731763E1
3.027477833E0,-8.982820129E0,-5.939798126E0,-4.647086334E0,1.172892453E1
3.037448833E0,-8.397686920E0,-5.647006989E0,-5.176235962E0,1.136676085E1
3.047418833E0,-7.784412231E0,-5.228926392E0,-5.364694061E0,1.080364232E1
3.057388833E0,-7.239545288E0,-4.798870697E0,-5.272934875E0,1.016090636E1
3.067359833E0,-6.868466949E0,-4.405638428E0,-4.872218170E0,9.503893838E0
3.077329833E0,-6.772965546E0,-4.152664490E0,-4.260290680E0,9.014863356E0
3.087299833E0,-6.849606171E0,-3.990551605E0,-3.559298401E0,8.689661208E0
3.097270833E0,-6.964716797E0,-4.034111023E0,-2.998564453E0,8.589104760E0
3.107240833E0,-7.020700378E0,-4.122577057E0,-2.628833313E0,8.555503491E0
3.117210833E0,-6.999145203E0,-4.078418884E0,-2.396666107E0,8.447812888E0
3.127181833E0,-6.908583527E0,-4.015250244E0,-2.379900970E0,8.337546971E0
3.137151833E0,-6.839577026E0,-4.047583008E0,-2.461631012E0,8.319998158E0
3.147121833E0,-6.757098541E0,-4.143234100E0,-2.521057434E0,8.317481596E0
3.157092833E0,-6.726112976E0,-4.284839630E0,-2.594105530E0,8.386288209E0
3.167062833E0,-6.715634766E0,-4.550237732E0,-2.686912537E0,8.545403016E0
3.177032833E0,-6.740333405E0,-4.927153931E0,-2.677033081E0,8.767864414E0
3.187003833E0,-6.809339905E0,-5.347479858E0,-2.523452454E0,9.018340372E0
3.196973833E0,-6.972350922E0,-5.744005280E0,-2.310894470E0,9.324564723E0
3.206944833E0,-7.329657898E0,-6.097420349E0,-2.110161896E0,9.764998876E0
3.216914833E0,-7.817343750E0,-6.377188568E0,-1.950893097E0,1.027547474E1
3.226884833E0,-8.328830109E0,-6.662195892E0,-1.857038269E0,1.082602680E1
3.236854833E0,-8.869056702E0,-6.965465240E0,-1.789378967E0,1.141839524E1
3.246825833E0,-9.357940063E0,-7.114405518E0,-1.693578186E0,1.187661632E1
3.256795833E0,-9.865235138E0,-7.152426453E0,-1.622326355E0,1.229276256E1
3.266766833E0,-1.035920792E1,-7.106322327E0,-1.659898224E0,1.267155349E1
3.276736833E0,-1.072744217E1,-6.922654266E0,-1.807191925E0,1.289446006E1
3.286706833E0,-1.111229187E1,-6.574029236E0,-2.029030609E0,1.306973053E1
3.296677833E0,-1.160671371E1,-6.124064941E0,-2.411485291E0,1.334298452E1
3.306647833E0,-1.201132233E1,-5.751489716E0,-2.878214722E0,1.362481625E1
3.316617833E0,-1.229468307E1,-5.539380798E0,-3.250640259E0,1.387121601E1
3.326588833E0,-1.244167740E1,-5.432203674E0,-3.545377350E0,1.403117507E1
3.336558833E0,-1.258567795E1,-5.368436279E0,-3.791615295E0,1.419844161E1
3.346528833E0,-1.261366974E1,-5.385949860E0,-3.997886353E0,1.428622467E1
3.356499833E0,-1.256277557E1,-5.360802155E0,-4.083657990E0,1.425614928E1
3.366469833E0,-1.251307892E1,-5.348078613E0,-4.120182037E0,1.421812185E1
3.376439833E0,-1.243793518E1,-5.446424103E0,-4.219874725E0,1.421875908E1
3.386410833E0,-1.250499573E1,-5.667214966E0,-4.371808777E0,1.440850289E1
3.396380833E0,-1.275302994E1,-6.188580780E0,-4.599784698E0,1.490289649E1
3.406350833E0,-1.315808762E1,-7.004384308E0,-4.877008209E0,1.568380943E1
3.416321833E0,-1.335043762E1,-7.829917603E0,-5.046006775E0,1.627894280E1
3.426291833E0,-1.310494812E1,-8.196205902E0,-4.811294861E0,1.618845313E1
3.436261833E0,-1.257205627E1,-8.047115936E0,-4.428241425E0,1.556990674E1
3.446232833E0,-1.215023346E1,-7.576045532E0,-3.989503784E0,1.486407681E1
3.456202833E0,-1.205802521E1,-6.968758392E0,-3.579955444E0,1.437969563E1
3.466172833E0,-1.210248276E1,-6.278992767E0,-3.288212128E0,1.402526927E1
3.476143833E0,-1.217463272E1,-5.666316833E0,-3.114722900E0,1.378514879E1
3.486113833E0,-1.213167206E1,-5.304519196E0,-3.139870605E0,1.360787192E1
3.496083833E0,-1.219124817E1,-5.370681610E0,-3.325185242E0,1.373053567E1
3.506054833E0,-1.220891144E1,-5.742658081E0,-3.465593262E0,1.393003866E1
3.516024833E0,-1.189561295E1,-6.261179810E0,-3.466042328E0,1.388241439E1
3.525994833E0,-1.143861328E1,-6.791826324E0,-3.290307770E0,1.370390104E1
3.535965833E0,-1.107756409E1,-7.371421051E0,-3.017275543E0,1.364383473E1
3.545935833E0,-1.079076050E1,-7.900870056E0,-2.706970825E0,1.364521714E1
3.555905833E0,-1.048794022E1,-8.240813141E0,-2.212848358E0,1.352052473E1
3.565876833E0,-1.022718246E1,-8.485554199E0,-1.712738342E0,1.339900608E1
3.575846833E0,-9.963430939E0,-8.628806305E0,-1.217717743E0,1.323665709E1
3.585816833E0,-9.779912567E0,-8.559799805E0,-7.108717346E-1,1.301622838E1
3.595787833E0,-9.706565094E0,-8.433163147E0,-3.020718384E-1,1.286183867E1
3.605757833E0,-9.664203186E0,-8.296647034E0,1.257385254E-2,1.273700645E1
3.615727833E0,-9.563312988E0,-8.150101776E0,2.496807861E-1,1.256755564E1
3.625699542E0,-9.393715668E0,-8.046217804E0,3.802093506E-1,1.237449288E1
3.635669542E0,-9.131311340E0,-7.973020020E0,4.836442566E-1,1.213193335E1
3.645639542E0,-8.790320435E0,-7.850874023E0,5.670208740E-1,1.179946901E1
3.655610542E0,-8.431516571E0,-7.666607208E0,5.902226257E-1,1.141120942E1
3.665580542E0,-8.107141113E0,-7.470814362E0,5.640270996E-1,1.103888268E1
3.675550542E0,-7.871082001E0,-7.339986420E0,4.655319214E-1,1.077246733E1
3.685521542E0,-7.566166077E0,-7.211852875E0,3.848497009E-1,1.045972276E1
3.695491542E0,-7.327412567E0,-6.917115784E0,3.094065857E-1,1.008132918E1
3.705461542E0,-7.265890503E0,-6.602919159E0,1.448986816E-1,9.818996988E0
3.715432542E0,-7.239844666E0,-6.273903351E0,-8.173004150E-2,9.580391111E0
3.725402542E0,-7.262297974E0,-5.959856415E0,-4.210743713E-1,9.404156739E0
3.735372542E0,-7.275171204E0,-5.699547729E0,-7.363188171E-1,9.271198723E0
3.745343542E0,-7.182214508E0,-5.431604919E0,-9.939331055E-1,9.059494481E0
3.755313542E0,-7.105274506E0,-5.150339813E0,-1.211879883E0,8.858870066E0
3.765283542E0,-7.023993530E0,-4.916825409E0,-1.421294403E0,8.690899550E0
3.775254542E0,-6.908882904E0,-4.724026337E0,-1.597178650E0,8.520567320E0
3.785224542E0,-6.800957336E0,-4.600832520E0,-1.730551300E0,8.391393708E0
3.795194542E0,-6.672674103E0,-4.562512207E0,-1.805395660E0,8.282544948E0
3.805165542E0,-6.504274292E0,-4.599635010E0,-1.873653717E0,8.183691376E0
3.815135542E0,-6.291416931E0,-4.664599915E0,-1.797462158E0,8.035626271E0
3.825105542E0,-6.151008911E0,-4.726720734E0,-1.673519897E0,7.935834447E0
3.835076542E0,-6.001469879E0,-4.819527740E0,-1.443148956E0,7.831230252E0
3.845046542E0,-5.863456879E0,-4.899461517E0,-1.193617859E0,7.733664935E0
3.855016542E0,-5.781277771E0,-4.927004242E0,-9.283694458E-1,7.652477592E0
3.864987542E0,-5.669609985E0,-4.964426422E0,-6.569837952E-1,7.564498317E0
3.874957542E0,-5.570066986E0,-4.988526306E0,-4.218228149E-1,7.489257335E0
3.884927542E0,-5.478158112E0,-5.055437164E0,-2.342628479E-1,7.458052045E0
3.894898542E0,-5.468727722E0,-5.143454132E0,-9.624984741E-2,7.508086796E0
3.904868542E0,-5.484145660E0,-5.330864410E0,-1.302291870E-2,7.648146088E0
3.914838542E0,-5.524262238E0,-5.565875702E0,8.936416626E-2,7.842476111E0
3.924809542E0,-5.506449280E0,-5.796845398E0,1.483415222E-1,7.996649639E0
3.934779542E0,-5.457950134E0,-6.008505249E0,2.338137817E-1,8.120715725E0
3.944749542E0,-5.366340637E0,-6.177653503E0,3.236270142E-1,8.189368052E0
3.954720542E0,-5.254223785E0,-6.325096893E0,3.748205566E-1,8.231294476E0
3.964690542E0,-5.186714172E0,-6.500382385E0,4.086502075E-1,8.326101732E0
3.974660542E0,-5.289400635E0,-6.732699280E0,5.251080322E-1,8.578038069E0
3.984631542E0,-5.336253204E0,-6.924600220E0,6.391708374E-1,8.765513438E0
3.994601542E0,-5.392685852E0,-7.138355713E0,7.420069885E-1,8.977068416E0
4.004571542E0,-5.673950958E0,-7.456743622E0,7.640112305E-1,9.401088133E0
4.014542542E0,-6.231541443E0,-7.966284027E0,5.828878784E-1,1.013082170E1
4.024512542E0,-6.671925659E0,-8.567134552E0,2.926414490E-1,1.086259755E1
4.034482542E0,-6.914421387E0,-9.024134216E0,6.466552734E-2,1.136874677E1
4.044453542E0,-6.980883179E0,-9.219777374E0,-9.475296021E-2,1.156486070E1
4.054423542E0,-6.951993256E0,-9.147926788E0,-1.679507446E-1,1.149099570E1
4.064393542E0,-6.986421661E0,-8.803642731E0,-2.263293457E-1,1.124123827E1
4.074364542E0,-7.203320618E0,-8.416847076E0,-2.941383362E-1,1.108231294E1
4.084334542E0,-7.386539612E0,-7.949219513E0,-2.769241333E-1,1.085484893E1
4.094304542E0,-7.503745880E0,-7.487280121E0,-2.155517578E-1,1.060245389E1
4.104275542E0,-7.897127838E0,-7.154821472E0,-1.619631958E-1,1.065750114E1
4.114245542E0,-8.566835175E0,-7.037615204E0,-2.570155334E-1,1.108984895E1
4.124215542E0,-9.190887451E0,-7.031028900E0,-4.257147217E-1,1.157968102E1
4.134186542E0,-9.754315796E0,-7.081773376E0,-6.595285034E-1,1.207199936E1
4.144156542E0,-1.016895355E1,-7.168293457E0,-1.003513184E0,1.248195041E1
4.154126542E0,-1.053464310E1,-7.292086029E0,-1.507664795E0,1.290063087E1
4.164097542E0,-1.079719711E1,-7.309898987E0,-2.152673492E0,1.321544898E1
4.174067542E0,-1.097547638E1,-7.183561707E0,-2.843187561E0,1.342193563E1
4.184037542E0,-1.105331451E1,-6.982080688E0,-3.594624939E0,1.355900221E1
4.194008542E0,-1.103505249E1,-6.733148346E0,-4.241579590E0,1.360509712E1
4.203978542E0,-1.098565521E1,-6.398144989E0,-4.705614624E0,1.355594662E1
4.213948542E0,-1.077204941E1,-6.001020813E0,-5.041965179E0,1.332181339E1
4.223919542E0,-1.034902908E1,-5.569767609E0,-5.290149078E0,1.288838203E1
4.233889542E0,-9.943073273E0,-5.160518646E0,-5.417683868E0,1.244375174E1
4.243859542E0,-9.621841278E0,-4.852758636E0,-5.357209625E0,1.203448341E1
4.253830542E0,-9.325307922E0,-4.679269409E0,-5.078638916E0,1.160385726E1
4.263800542E0,-9.051527252E0,-4.603676605E0,-4.660408630E0,1.117333399E1
4.273770542E0,-8.803493042E0,-4.543950806E0,-4.219275970E0,1.076806707E1
4.283741542E0,-8.524173889E0,-4.434079285E0,-3.779490509E0,1.032507376E1
4.293711542E0,-8.253686371E0,-4.330494690E0,-3.407813416E0,9.924198469E0
4.303681542E0,-8.039481812E0,-4.225413208E0,-3.091221771E0,9.593906223E0
4.313652542E0,-7.742948456E0,-4.113745422E0,-2.790796509E0,9.201342149E0
4.323622542E0,-7.473658447E0,-4.031865692E0,-2.486629028E0,8.848436894E0
4.333592542E0,-7.350314941E0,-4.060605927E0,-2.213896179E0,8.684295396E0
4.343563542E0,-7.268285522E0,-4.176165619E0,-2.021396484E0,8.622898437E0
4.353533542E0,-7.142546997E0,-4.268822937E0,-1.839225311E0,8.521829417E0
4.363503542E0,-7.201823730E0,-4.306245117E0,-1.647773438E0,8.551325591E0
4.373474542E0,-7.313192139E0,-4.378694458E0,-1.512305145E0,8.656951615E0
4.383444542E0,-7.542515259E0,-4.467459869E0,-1.415007477E0,8.879751138E0
4.393414542E0,-7.720195770E0,-4.536166992E0,-1.388362885E0,9.061224267E0
4.403385542E0,-7.885901184E0,-4.510121155E0,-1.370549927E0,9.187330266E0
4.413355542E0,-8.034991150E0,-4.534370728E0,-1.426533508E0,9.335769841E0
4.423325542E0,-8.170609131E0,-4.533322906E0,-1.559457092E0,9.473213635E0
4.433296542E0,-8.394094391E0,-4.461622009E0,-1.569785614E0,9.634890683E0
4.443266542E0,-8.654702454E0,-4.374054108E0,-1.588646393E0,9.826495879E0
4.453236542E0,-8.826545105E0,-4.354444885E0,-1.681004333E0,9.984731560E0
4.463207542E0,-8.973389740E0,-4.309687958E0,-1.854194183E0,1.012586637E1
4.473177542E0,-9.332942047E0,-4.181255035E0,-2.038460999E0,1.042794439E1
4.483147542E0,-9.761650543E0,-4.024830322E0,-2.324366455E0,1.081164927E1
4.493118542E0,-9.975555725E0,-3.915557556E0,-2.708318024E0,1.105342886E1
4.503088542E0,-1.010309052E1,-3.888463898E0,-3.041525116E0,1.124470829E1
4.513058542E0,-1.023212219E1,-3.954626312E0,-3.255430298E0,1.144260548E1
4.523029542E0,-1.039154068E1,-4.157604218E0,-3.436104584E0,1.170797187E1
4.532999542E0,-1.059436890E1,-4.480033722E0,-3.578458557E0,1.204644014E1
4.542969542E0,-1.064616119E1,-4.851860504E0,-3.608545990E0,1.224348409E1
4.552940542E0,-1.057505905E1,-5.230572968E0,-3.620072021E0,1.234081395E1
4.562910542E0,-1.062191162E1,-5.585933990E0,-3.626059570E0,1.253698421E1
4.572880542E0,-1.082399139E1,-5.853278046E0,-3.610192566E0,1.282392857E1
4.582851542E0,-1.105780518E1,-6.077960815E0,-3.554208984E0,1.310912142E1
4.592821542E0,-1.124252106E1,-6.162684631E0,-3.436853027E0,1.327346678E1
4.602791542E0,-1.131856293E1,-6.081253967E0,-3.262315979E0,1.325647850E1
4.612762542E0,-1.138532410E1,-5.883215790E0,-3.097808075E0,1.318462164E1
4.622732667E0,-1.149803970E1,-5.854475555E0,-3.054997101E0,1.325944223E1
4.632702667E0,-1.192674820E1,-6.173312531E0,-3.208428040E0,1.380764718E1
4.642673667E0,-1.250110382E1,-6.991810455E0,-3.366649017E0,1.471384844E1
4.652643667E0,-1.281215698E1,-7.949069824E0,-3.406765594E0,1.545785009E1
4.662613667E0,-1.262669266E1,-8.555458832E0,-3.289409637E0,1.560286701E1
4.672584667E0,-1.203886505E1,-8.672665100E0,-2.974614258E0,1.513267067E1
4.682554667E0,-1.131047974E1,-8.278534698E0,-2.591111755E0,1.425394502E1
4.692524667E0,-1.076995377E1,-7.600295105E0,-2.351909180E0,1.338984192E1
4.702495667E0,-1.073851913E1,-6.865024109E0,-2.218686218E0,1.293703667E1
4.712465667E0,-1.105136856E1,-6.304589539E0,-2.218386841E0,1.291517853E1
4.722435667E0,-1.132709518E1,-6.024671631E0,-2.225571899E0,1.302124894E1
4.732406667E0,-1.145448029E1,-5.961502991E0,-2.105222168E0,1.308344744E1
4.742376667E0,-1.136840927E1,-6.101761322E0,-1.828597412E0,1.303134640E1
4.752346667E0,-1.100152222E1,-6.421197052E0,-1.509760437E0,1.282749544E1
4.762317667E0,-1.057865158E1,-6.855144653E0,-1.249601440E0,1.266737468E1
4.772287667E0,-1.011401779E1,-7.250771942E0,-1.053958282E0,1.248911037E1
4.782257667E0,-9.649234314E0,-7.607480164E0,-9.316625977E-1,1.232272180E1
4.792228667E0,-9.290131073E0,-7.957452393E0,-8.306227112E-1,1.226040448E1
4.802198667E0,-9.014554138E0,-8.262518005E0,-7.292834473E-1,1.225003039E1
4.812168667E0,-8.798104248E0,-8.391998749E0,-5.779481506E-1,1.217235825E1
4.822139667E0,-8.707542572E0,-8.331075439E0,-4.364923096E-1,1.205896518E1
4.832109667E0,-8.646918640E0,-8.126001892E0,-3.201841736E-1,1.187028334E1
4.842079667E0,-8.623417511E0,-7.803871765E0,-2.692900085E-1,1.163341142E1
4.852050667E0,-8.594527588E0,-7.461533661E0,-2.523751831E-1,1.138437887E1
4.862020667E0,-8.525371399E0,-7.103178864E0,-3.400927734E-1,1.110192643E1
4.871990667E0,-8.432414703E0,-6.778653717E0,-4.944218445E-1,1.083052247E1
4.881961667E0,-8.317154388E0,-6.471791840E0,-6.727011108E-1,1.055990878E1
4.891931667E0,-8.217611389E0,-6.198160858E0,-8.638536072E-1,1.032920994E1
4.901901667E0,-8.076604614E0,-5.977369995E0,-1.086291046E0,1.010645944E1
4.911872667E0,-7.950267334E0,-5.837860107E0,-1.324745178E0,9.952000357E0
4.921842667E0,-7.768096161E0,-5.750741272E0,-1.473086700E0,9.776723765E0
4.931812667E0,-7.505691833E0,-5.648653564E0,-1.549427948E0,9.520684007E0
4.941783667E0,-7.290289764E0,-5.546715546E0,-1.607656860E0,9.300480567E0
4.951753667E0,-7.032825165E0,-5.464087372E0,-1.649270325E0,9.057426412E0
4.961723667E0,-6.834188232E0,-5.351521454E0,-1.688039703E0,8.842759112E0
4.971694667E0,-6.744973755E0,-5.238955536E0,-1.642234955E0,8.697026027E0
4.981664667E0,-6.636000366E0,-5.157375183E0,-1.567390594E0,8.549370323E0
4.991634667E0,-6.421945496E0,-5.123545532E0,-1.522334290E0,8.355214208E0
5.001605667E0,-6.172863464E0,-5.112468567E0,-1.416354675E0,8.139265247E0
5.011575667E0,-5.934559021E0,-5.115013275E0,-1.257834320E0,7.935017250E0
5.021545667E0,-5.750741272E0,-5.158722382E0,-1.124162292E0,7.806867659E0
5.031516667E0,-5.578150177E0,-5.204676819E0,-1.008602600E0,7.695563617E0
5.041486667E0,-5.379962311E0,-5.284311218E0,-9.304650879E-1,7.598269855E0
5.051456667E0,-5.197342072E0,-5.258415070E0,-8.202941895E-1,7.438828954E0
5.061426667E0,-5.089117126E0,-5.237159271E0,-7.171586609E-1,7.337660861E0
5.071397667E0,-4.970713348E0,-5.207969971E0,-6.575825500E-1,7.229340026E0
5.081367667E0,-4.865482178E0,-5.192552032E0,-6.423143005E-1,7.144793985E0
5.091338667E0,-4.791835327E0,-5.178481293E0,-5.846841431E-1,7.079562829E0
5.101308667E0,-4.755311279E0,-5.159919891E0,-5.601351929E-1,7.039283350E0
5.111278667E0,-4.777016144E0,-5.217849426E0,-5.872288513E-1,7.098638855E0
5.121248667E0,-4.834795990E0,-5.353168030E0,-5.960604858E-1,7.237882862E0
5.131219667E0,-4.873415680E0,-5.517226868E0,-6.074368286E-1,7.386403198E0
5.141189667E0,-4.928201752E0,-5.686075745E0,-5.873785400E-1,7.547426278E0
5.151159667E0,-4.978497162E0,-5.926625519E0,-5.589376831E-1,7.760330880E0
5.161130667E0,-4.991969147E0,-6.145620117E0,-4.927752686E-1,7.932920651E0
5.171100667E0,-4.923112335E0,-6.368506622E0,-4.034111023E-1,8.059631020E0
5.181070667E0,-4.818928986E0,-6.516997833E0,-2.998265076E-1,8.110686362E0
5.191041667E0,-4.935686188E0,-6.657705231E0,-2.832110596E-1,8.292541564E0
5.201011667E0,-5.484894104E0,-6.899751892E0,-4.287084961E-1,8.824649029E0
5.210981667E0,-6.249354401E0,-7.431895294E0,-7.761360168E-1,9.741143937E0
5.220952667E0,-7.004234619E0,-8.248297577E0,-1.232686615E0,1.089097020E1
5.230922667E0,-7.560627594E0,-8.950038300E0,-1.537602539E0,1.181653489E1
5.240892667E0,-7.712861023E0,-9.309440918E0,-1.630409546E0,1.219885858E1
5.250863667E0,-7.279811554E0,-9.213191071E0,-1.622476044E0,1.185373251E1
5.260833667E0,-6.634653168E0,-8.798553314E0,-1.426683197E0,1.111164200E1
5.270803667E0,-6.386169891E0,-8.475674744E0,-1.123713226E0,1.067159593E1
5.280774667E0,-6.512656860E0,-8.167166290E0,-8.376580811E-1,1.047945493E1
5.290744667E0,-7.036567383E0,-7.791447601E0,-5.893244934E-1,1.051509580E1
5.300714667E0,-7.895930328E0,-7.513924713E0,-4.587959290E-1,1.090941218E1
5.310685667E0,-8.696764984E0,-7.352111206E0,-4.704716492E-1,1.139774556E1
5.320655667E0,-9.437724152E0,-7.165599060E0,-7.292834473E-1,1.187216498E1
5.330625667E0,-1.004740631E1,-6.966812439E0,-1.085841980E0,1.227460394E1
5.340596667E0,-1.040531204E1,-6.807393951E0,-1.542691956E0,1.252960612E1
5.350566667E0,-1.054886353E1,-6.607409821E0,-2.102677460E0,1.262369354E1
5.360536667E0,-1.049512527E1,-6.357130280E0,-2.654430084E0,1.255415306E1
5.370507667E0,-1.044243484E1,-6.230643311E0,-3.106340332E0,1.255048652E1
5.380477667E0,-1.024230103E1,-6.139931946E0,-3.454516296E0,1.243129830E1
5.390447667E0,-9.940079498E0,-5.977519684E0,-3.705993347E0,1.217662961E1
5.400418667E0,-9.602232056E0,-5.745651855E0,-3.834276581E0,1.182865388E1
5.410388667E0,-9.234147491E0,-5.530399475E0,-3.846850433E0,1.143035680E1
5.420358667E0,-8.901389465E0,-5.362149353E0,-3.779340820E0,1.105761263E1
5.430329667E0,-8.642128601E0,-5.241051178E0,-3.659889221E0,1.074940898E1
5.440299667E0,-8.437055054E0,-5.148393860E0,-3.443738708E0,1.046657507E1
5.450269667E0,-8.273445282E0,-5.026547241E0,-3.121458893E0,1.017150823E1
5.460240667E0,-8.126900024E0,-4.907694397E0,-2.716401215E0,9.874755889E0
5.470210667E0,-7.948770447E0,-4.793781281E0,-2.297572174E0,9.562537763E0
5.480180667E0,-7.810458069E0,-4.733007660E0,-1.931433563E0,9.334615812E0
5.490151667E0,-7.649093628E0,-4.715194702E0,-1.604663086E0,9.127794806E0
5.500121667E0,-7.573949890E0,-4.605173492E0,-1.303639069E0,8.959453926E0
5.510091667E0,-7.515271912E0,-4.490960999E0,-1.114731903E0,8.825569093E0
5.520062667E0,-7.459737396E0,-4.446653137E0,-1.008153534E0,8.742813031E0
5.530032667E0,-7.419620819E0,-4.482279053E0,-9.608518982E-1,8.721515635E0
5.540002667E0,-7.428153076E0,-4.565356293E0,-9.394464111E-1,8.769406808E0
5.549973667E0,-7.533234558E0,-4.710554352E0,-9.126521301E-1,8.931510461E0
5.559943667E0,-7.706274719E0,-4.931494904E0,-8.954379272E-1,9.192829875E0
5.569913667E0,-7.913892975E0,-5.181624756E0,-8.762777710E-1,9.499831570E0
5.579884667E0,-8.134234772E0,-5.424569550E0,-8.327183533E-1,9.812499680E0
5.589854667E0,-8.273894348E0,-5.555247803E0,-8.249345398E-1,9.999931141E0
5.599824667E0,-8.472980347E0,-5.537135468E0,-9.370513916E-1,1.016510356E1
5.609795667E0,-8.778495026E0,-5.467380524E0,-1.090033264E0,1.039915368E1
5.619765667E0,-9.082512817E0,-5.407205658E0,-1.300196228E0,1.064990246E1
5.629735083E0,-9.384584656E0,-5.346282349E0,-1.533860321E0,1.090898215E1
5.639706083E0,-9.733808441E0,-5.235213318E0,-1.760638733E0,1.119170827E1
5.649676083E0,-1.006851242E1,-5.092559967E0,-1.924098816E0,1.144601527E1
5.659646083E0,-1.035816010E1,-4.954696655E0,-2.110760651E0,1.167457965E1
5.669617083E0,-1.065604065E1,-4.934039612E0,-2.332898712E0,1.197240016E1
5.679587083E0,-1.101215012E1,-4.893623657E0,-2.458487549E0,1.229874643E1
5.689557083E0,-1.134251312E1,-4.914580078E0,-2.559377747E0,1.262363322E1
5.699528083E0,-1.162677200E1,-5.039121094E0,-2.662513275E0,1.294849588E1
5.709498083E0,-1.189351730E1,-5.232069855E0,-2.794688416E0,1.329062046E1
5.719468083E0,-1.212089447E1,-5.418731689E0,-2.833757172E0,1.357604197E1
5.729439083E0,-1.223675354E1,-5.543272705E0,-2.825075226E0,1.372760210E1
5.739409083E0,-1.224468704E1,-5.601800995E0,-2.874921570E0,1.376872213E1
5.749379083E0,-1.222807159E1,-5.642516327E0,-2.963537292E0,1.378935382E1
5.759350083E0,-1.214409622E1,-5.642516327E0,-2.946622467E0,1.371129635E1
5.769320083E0,-1.193737610E1,-5.457650757E0,-2.828069000E0,1.342702030E1
5.779290083E0,-1.171239395E1,-5.152136078E0,-2.722987518E0,1.308202352E1
5.789261083E0,-1.154025192E1,-4.837340698E0,-2.664758606E0,1.279367883E1
5.799231083E0,-1.162677200E1,-4.756059723E0,-2.737207947E0,1.285668070E1
5.809201083E0,-1.199201248E1,-5.122497711E0,-2.944227448E0,1.336850109E1
5.819171083E0,-1.237536530E1,-5.924080811E0,-3.194956055E0,1.408730435E1
5.829142083E0,-1.244362335E1,-6.745572510E0,-3.288661194E0,1.453140747E1
5.839112083E0,-1.213242050E1,-7.345524902E0,-3.349434814E0,1.457295704E1
5.849082083E0,-1.169577850E1,-7.742200012E0,-3.454516296E0,1.444529607E1
5.859053083E0,-1.138951538E1,-7.867190094E0,-3.512296143E0,1.428110517E1
5.869023083E0,-1.102262833E1,-7.604187012E0,-3.439248047E0,1.382571598E1
5.878993083E0,-1.093940140E1,-7.109914856E0,-3.437601471E0,1.349216425E1
5.888964083E0,-1.132245483E1,-6.735094299E0,-3.459156647E0,1.362076515E1
5.898934083E0,-1.177406570E1,-6.572083282E0,-3.324736176E0,1.388793622E1
5.908904083E0,-1.197330139E1,-6.502777405E0,-3.029849396E0,1.395801016E1
5.918875083E0,-1.202015396E1,-6.586154022E0,-2.723436584E0,1.397421314E1
5.928845083E0,-1.190040298E1,-6.925498352E0,-2.417173462E0,1.397944370E1
5.938815083E0,-1.166614014E1,-7.357949066E0,-2.103126526E0,1.395211028E1
5.948786083E0,-1.142888351E1,-7.770491180E0,-1.851499786E0,1.394374279E1
5.958756083E0,-1.114312775E1,-8.150251465E0,-1.611698456E0,1.389940527E1
5.968726083E0,-1.090257797E1,-8.432863770E0,-1.300196228E0,1.384449017E1
5.978697083E0,-1.069031937E1,-8.645272064E0,-9.316625977E-1,1.378011801E1
5.988667083E0,-1.050096313E1,-8.678652649E0,-5.522016907E-1,1.363430106E1
5.998637083E0,-1.035591476E1,-8.543633423E0,-2.556683350E-1,1.342773283E1
6.008608083E0,-1.019275406E1,-8.292156372E0,-1.541793823E-2,1.313972337E1
6.018578083E0,-1.001761826E1,-7.989785156E0,1.329235840E-1,1.281432835E1
6.028548083E0,-9.808952179E0,-7.695347443E0,8.532257080E-2,1.246760583E1
6.038519083E0,-9.647737427E0,-7.392078094E0,-8.277786255E-2,1.215436169E1
6.048489083E0,-9.440268860E0,-7.157216492E0,-3.167413330E-1,1.185093874E1
6.058459083E0,-9.197773132E0,-6.942712555E0,-6.007008362E-1,1.153954634E1
6.068430083E0,-8.951535187E0,-6.807244263E0,-8.451425171E-1,1.127753619E1
6.078400083E0,-8.711883545E0,-6.744225311E0,-1.043779449E0,1.106666009E1
6.088370083E0,-8.511001282E0,-6.736740875E0,-1.118324432E0,1.091198744E1
6.098341083E0,-8.253686371E0,-6.717730408E0,-1.026864624E0,1.069138398E1
6.108311083E0,-8.106841736E0,-6.588549042E0,-8.704399109E-1,1.048272517E1
6.118281083E0,-8.044571228E0,-6.483168182E0,-7.334747314E-1,1.035782705E1
6.128252083E0,-7.985294495E0,-6.399791565E0,-6.325845337E-1,1.025292268E1
6.138222083E0,-7.877668304E0,-6.356830902E0,-5.108876038E-1,1.013548041E1
6.148192083E0,-7.695048065E0,-6.318660278E0,-3.493734741E-1,9.962996249E0
6.158163083E0,-7.520061951E0,-6.293512573E0,-1.877096558E-1,9.807898203E0
6.168133083E0,-7.315587158E0,-6.267017670E0,-8.457412720E-2,9.633300510E0
6.178103083E0,-7.098089447E0,-6.215973816E0,-3.248245239E-2,9.435160803E0
6.188074083E0,-6.917864227E0,-6.219716034E0,-3.412902832E-2,9.302842458E0
6.198044083E0,-6.712640991E0,-6.286776581E0,-7.948471069E-2,9.197251039E0
6.208014083E0,-6.435267792E0,-6.314169617E0,-5.882766724E-2,9.015812232E0
6.217985083E0,-6.189329224E0,-6.298901367E0,4.595443726E-2,8.830972001E0
6.227955083E0,-5.987099762E0,-6.284830627E0,1.052311707E-1,8.680756486E0
6.237925083E0,-5.740263062E0,-6.272406464E0,2.387535095E-1,8.505921825E0
6.247896083E0,-5.376968536E0,-6.184988251E0,3.945794678E-1,8.204971862E0
6.257866083E0,-4.962330780E0,-6.048023071E0,5.777984619E-1,7.844562506E0
6.267836083E0,-4.532424774E0,-5.936654663E0,7.292834473E-1,7.504571758E0
6.277806083E0,-4.232747955E0,-5.840554504E0,8.384065247E-1,7.261622248E0
6.287777083E0,-4.053420868E0,-5.858517151E0,8.357121277E-1,7.172925393E0
6.297747083E0,-3.830234985E0,-5.953419800E0,7.482939148E-1,7.118556816E0
6.307717083E0,-3.656596069E0,-6.030210114E0,6.884184265E-1,7.085763809E0
6.317688083E0,-3.529360657E0,-6.089187469E0,6.574328613E-1,7.068720439E0
6.327658083E0,-3.378175049E0,-6.173013153E0,7.441026306E-1,7.076146322E0
6.337628083E0,-3.269501038E0,-6.223308563E0,8.755293274E-1,7.084190717E0
6.347599083E0,-3.356170807E0,-6.221063232E0,9.824070740E-1,7.136570177E0
6.357569083E0,-3.666325836E0,-6.223308563E0,9.388476562E-1,7.283745570E0
6.367539083E0,-4.293820953E0,-6.481820984E0,5.700146484E-1,7.795884706E0
6.377510083E0,-4.902604980E0,-6.997947693E0,-6.376739502E-2,8.544640062E0
6.387480083E0,-5.196743317E0,-7.630981293E0,-7.691006470E-1,9.264422939E0
6.397450083E0,-5.356461182E0,-8.195906525E0,-1.290765839E0,9.875760052E0
6.407421083E0,-5.431604919E0,-8.505612488E0,-1.699416046E0,1.023405055E1
6.417391083E0,-5.359005890E0,-8.527017975E0,-1.952240295E0,1.025866570E1
6.427361083E0,-5.419629822E0,-8.418942719E0,-2.072590027E0,1.022480383E1
6.437332083E0,-5.712121582E0,-8.232580261E0,-2.020348663E0,1.022181586E1
6.447302083E0,-6.323749695E0,-8.029452667E0,-1.911824341E0,1.039793213E1
6.457272083E0,-7.168742523E0,-7.973469086E0,-1.901944885E0,1.088964981E1
6.467243083E0,-8.108188934E0,-7.984845428E0,-1.879790955E0,1.153404085E1
6.477213083E0,-9.118288422E0,-7.980055389E0,-1.848655701E0,1.225732416E1
6.487183083E0,-1.011356873E1,-7.989635468E0,-1.932631073E0,1.303278981E1
6.497154083E0,-1.098490677E1,-7.916138306E0,-2.211201782E0,1.371943278E1
6.507124083E0,-1.155836426E1,-7.739505615E0,-2.700085144E0,1.416990442E1
6.517094083E0,-1.187286026E1,-7.544012146E0,-3.287763062E0,1.444597923E1
6.527065083E0,-1.173978699E1,-7.285499725E0,-3.829187164E0,1.433749557E1
6.537035083E0,-1.134820129E1,-6.922953644E0,-4.274511108E0,1.396353841E1
6.547005083E0,-1.096993790E1,-6.627917175E0,-4.584366760E0,1.361195218E1
6.556976083E0,-1.055080948E1,-6.317911835E0,-4.753215637E0,1.318440933E1
6.566946083E0,-1.002989273E1,-5.928421783E0,-4.718487854E0,1.257016550E1
6.576916083E0,-9.575437775E0,-5.551954651E0,-4.581672363E0,1.197935435E1
6.586887083E0,-9.275760956E0,-5.261857910E0,-4.336182861E0,1.151214019E1
6.596857083E0,-9.125922546E0,-5.074896698E0,-4.011208649E0,1.118601062E1
6.606827083E0,-9.042396240E0,-4.909490662E0,-3.682941284E0,1.092849875E1
6.616798083E0,-9.045390015E0,-4.679568787E0,-3.677702179E0,1.082787781E1
6.626768583E0,-8.984915771E0,-4.697830811E0,-3.252735901E0,1.064793955E1
6.636738583E0,-8.639583893E0,-4.994513855E0,-2.203417969E0,1.021971767E1
6.646708583E0,-8.494236145E0,-4.910089417E0,-2.034868469E0,1.002006564E1
6.656679583E0,-8.432863770E0,-4.945865021E0,-1.723665619E0,9.927023488E0
6.666649583E0,-8.214168549E0,-5.170248413E0,-1.475032654E0,9.817319131E0
6.676619583E0,-8.089926910E0,-5.226381683E0,-1.232087860E0,9.709790081E0
6.686590583E0,-8.217461700E0,-5.270090790E0,-1.063388672E0,9.819945478E0
6.696560583E0,-8.488398285E0,-5.421725464E0,-1.041683807E0,1.012586380E1
6.706530583E0,-8.738677826E0,-5.572911072E0,-9.892927551E-1,1.041155743E1
6.716501583E0,-8.985364838E0,-5.673950958E0,-8.331674194E-1,1.065948726E1
6.726471583E0,-9.166787567E0,-5.883066101E0,-6.827302551E-1,1.091359618E1
6.736441583E0,-9.371711426E0,-6.153254242E0,-6.268963623E-1,1.122873599E1
6.746412583E0,-9.586664429E0,-6.402036896E0,-5.881269836E-1,1.154279449E1
6.756382583E0,-9.685309296E0,-6.551126862E0,-5.628295898E-1,1.170637674E1
6.766352583E0,-9.886790314E0,-6.530170441E0,-5.599855042E-1,1.186192786E1
6.776323583E0,-1.021221359E1,-6.387666779E0,-5.628295898E-1,1.205853932E1
6.786293583E0,-1.040890457E1,-6.081403656E0,-6.831793213E-1,1.207458069E1
6.796263583E0,-1.068358337E1,-5.729186096E0,-8.940907288E-1,1.215573631E1
6.806234583E0,-1.106334366E1,-5.385500793E0,-1.115929413E0,1.235501882E1
6.816204583E0,-1.148486710E1,-5.093757477E0,-1.390159149E0,1.264045410E1
6.826174583E0,-1.185789139E1,-4.850363617E0,-1.803150330E0,1.293781150E1
6.836145583E0,-1.214095276E1,-4.629722443E0,-2.126028900E0,1.316651293E1
6.846115583E0,-1.232821335E1,-4.631219330E0,-2.341880035E0,1.337600235E1
6.856085583E0,-1.237461685E1,-4.732408905E0,-2.549498291E0,1.349172998E1
6.866056583E0,-1.235650452E1,-4.831203461E0,-2.732417908E0,1.354584211E1
6.876026583E0,-1.236413864E1,-4.887935486E0,-2.827619934E0,1.359261830E1
6.885996583E0,-1.237386841E1,-4.859344940E0,-2.859353943E0,1.359785857E1
6.895967583E0,-1.230486191E1,-4.708758087E0,-2.838098145E0,1.347727088E1
6.905937583E0,-1.236698273E1,-4.470303955E0,-2.862347717E0,1.345804271E1
6.915907583E0,-1.274794052E1,-4.532724152E0,-3.090024261E0,1.387817804E1
6.925878583E0,-1.346210541E1,-5.063670044E0,-3.431314545E0,1.478658026E1
6.935848583E0,-1.421009995E1,-5.959257660E0,-3.690575409E0,1.584487422E1
6.945818583E0,-1.446531921E1,-6.750961304E0,-3.769910431E0,1.640223043E1
6.955789583E0,-1.387958725E1,-6.928192749E0,-3.721111908E0,1.595272613E1
6.965759583E0,-1.291604095E1,-6.450835419E0,-3.558549957E0,1.486945424E1
6.975729583E0,-1.230740662E1,-5.729784851E0,-3.423830109E0,1.400090371E1
6.985700583E0,-1.212942673E1,-5.050198059E0,-3.393143921E0,1.356985331E1
6.995670583E0,-1.225351868E1,-4.685256958E0,-3.296744385E0,1.352659884E1
7.005640583E0,-1.255693771E1,-4.636159058E0,-3.118764496E0,1.374399314E1
7.015610583E0,-1.269420227E1,-4.917124786E0,-2.994672546E0,1.393875716E1
7.025581583E0,-1.265663040E1,-5.497467957E0,-2.896177368E0,1.409965568E1
7.035551583E0,-1.241099121E1,-6.287974091E0,-2.669249268E0,1.416672907E1
7.045521583E0,-1.201476517E1,-7.070995789E0,-2.333497467E0,1.413501942E1
7.055492583E0,-1.159039764E1,-7.781568146E0,-2.106419678E0,1.411832583E1
7.065462583E0,-1.117291580E1,-8.379275208E0,-1.836081848E0,1.408607458E1
7.075432583E0,-1.086006638E1,-8.845555573E0,-1.475481720E0,1.408410243E1
7.085403583E0,-1.064017365E1,-9.179960175E0,-1.085542603E0,1.409479928E1
7.095373583E0,-1.048764084E1,-9.335636444E0,-6.288423157E-1,1.405489811E1
7.105343583E0,-1.044318329E1,-9.256301422E0,-1.559756470E-1,1.395577019E1
7.115314583E0,-1.051847672E1,-8.987161102E0,2.992277527E-1,1.383824246E1
7.125284583E0,-1.056338333E1,-8.729247437E0,5.569917297E-1,1.371477554E1
7.135254583E0,-1.053045181E1,-8.488847351E0,6.917115784E-1,1.354361140E1
7.145225583E0,-1.037507492E1,-8.265212402E0,7.192543030E-1,1.328432318E1
7.155195583E0,-1.012494507E1,-8.045169983E0,5.691165161E-1,1.294461920E1
7.165165583E0,-9.835896149E0,-7.839048615E0,3.594026184E-1,1.258271459E1
7.175136583E0,-9.463470612E0,-7.610324249E0,1.152603149E-2,1.214390563E1
7.185106583E0,-9.182504883E0,-7.410040741E0,-3.463796997E-1,1.180453636E1
7.195076583E0,-8.979976044E0,-7.245383148E0,-6.102809143E-1,1.155456574E1
7.205047583E0,-8.813372498E0,-7.092101898E0,-8.701405334E-1,1.134595032E1
7.215017583E0,-8.655001831E0,-6.937024384E0,-1.073567505E0,1.114378352E1
7.224987583E0,-8.536897430E0,-6.776558075E0,-1.142873383E0,1.095931187E1
7.234958583E0,-8.448281708E0,-6.614295502E0,-1.170266418E0,1.079314098E1
7.244928583E0,-8.390950928E0,-6.512656860E0,-1.177002411E0,1.068681859E1
7.254898583E0,-8.298443298E0,-6.470294952E0,-1.118773499E0,1.058208543E1
7.264868583E0,-8.156089325E0,-6.407575378E0,-9.770182800E-1,1.041793550E1
7.274839583E0,-7.987689514E0,-6.344107361E0,-7.677534485E-1,1.022938548E1
7.284809583E0,-7.803123322E0,-6.361471252E0,-5.962101746E-1,1.008526235E1
7.294779583E0,-7.574997711E0,-6.370003510E0,-4.203259277E-1,9.906271192E0
7.304750583E0,-7.341034241E0,-6.342909851E0,-2.074685669E-1,9.703933857E0
7.314720583E0,-7.080276489E0,-6.282884674E0,-5.074447632E-2,9.466125395E0
7.324690583E0,-6.810238037E0,-6.217770081E0,1.023870850E-1,9.222282256E0
7.334661583E0,-6.618187408E0,-6.187982025E0,2.466870117E-1,9.063795044E0
7.344631583E0,-6.357878723E0,-6.176156616E0,3.588038635E-1,8.871091963E0
7.354601583E0,-6.081852722E0,-6.118376770E0,4.493655396E-1,8.638599205E0
7.364572583E0,-5.853128357E0,-6.057603149E0,5.457650757E-1,8.441061959E0
7.374542583E0,-5.717210999E0,-6.024971008E0,6.691085815E-1,8.332735658E0
7.384512583E0,-5.600154419E0,-6.053262177E0,7.688012695E-1,8.282195837E0
7.394483583E0,-5.599405975E0,-6.054459686E0,8.472381592E-1,8.290213620E0
7.404453583E0,-5.697751465E0,-6.080505524E0,9.035211182E-1,8.381722352E0
7.414423583E0,-5.764063568E0,-6.171366577E0,9.286688232E-1,8.495447018E0
7.424394583E0,-5.786516876E0,-6.373146973E0,9.211843872E-1,8.657329875E0
7.434364583E0,-5.859564972E0,-6.613696747E0,9.436376953E-1,8.886278097E0
7.444334583E0,-6.032006378E0,-6.894812164E0,9.644444275E-1,9.211606200E0
7.454305583E0,-6.041586456E0,-7.098089447E0,9.752220154E-1,9.372016789E0
7.464275583E0,-5.878126373E0,-7.094945984E0,1.058448944E0,9.274208448E0
7.474245583E0,-5.744304657E0,-7.008874969E0,1.124012604E0,9.131526086E0
7.484216583E0,-5.629343719E0,-6.969506836E0,1.075962524E0,9.023371410E0
7.494186583E0,-5.594017181E0,-6.997498627E0,9.461824036E-1,9.008511331E0
7.504156583E0,-5.611081696E0,-7.047344971E0,7.768844604E-1,9.041728728E0
7.514127583E0,-5.801635437E0,-7.250921631E0,4.556524658E-1,9.297443595E0
7.524097583E0,-6.270310822E0,-7.821235657E0,-2.230361938E-2,1.002442130E1
7.534067583E0,-6.671925659E0,-8.525670776E0,-4.766088867E-1,1.083645746E1
7.544038583E0,-6.549480286E0,-8.924142151E0,-7.312294006E-1,1.109372352E1
7.554008583E0,-6.066135406E0,-8.899742889E0,-8.680448914E-1,1.080541180E1
7.563978583E0,-5.631439362E0,-8.648265839E0,-9.551637268E-1,1.036426307E1
7.573948583E0,-5.396128693E0,-8.199648743E0,-1.040186920E0,9.870888167E0
7.583919583E0,-5.393883362E0,-7.668253784E0,-9.946815491E-1,9.427909906E0
7.593889583E0,-5.648653564E0,-7.183112640E0,-8.201445007E-1,9.174804156E0
7.603859583E0,-6.438710632E0,-6.928492126E0,-6.794371033E-1,9.482754480E0
7.613830583E0,-7.230264587E0,-6.705755310E0,-6.289920044E-1,9.881270729E0
7.623800583E0,-7.812404022E0,-6.460415497E0,-7.729925537E-1,1.016701247E1
7.633770542E0,-8.297694855E0,-6.309080200E0,-1.098266144E0,1.048152763E1
7.643741542E0,-8.608748016E0,-6.264173584E0,-1.568288727E0,1.076150281E1
7.653711542E0,-8.870403900E0,-6.390211487E0,-2.245031433E0,1.116060188E1
7.663681542E0,-9.013206940E0,-6.520290985E0,-2.980751495E0,1.151681264E1
7.673652542E0,-9.168434143E0,-6.612798615E0,-3.685935059E0,1.189013908E1
7.683622542E0,-9.328451385E0,-6.683152313E0,-4.284540253E0,1.224915570E1
7.693592542E0,-9.366771698E0,-6.622079315E0,-4.731660461E0,1.240874519E1
7.703563542E0,-9.251661072E0,-6.414461060E0,-5.027295685E0,1.232932460E1
7.713533542E0,-9.047635345E0,-6.127507782E0,-5.072950745E0,1.204744314E1
7.723503542E0,-8.867110748E0,-5.814658356E0,-4.921166382E0,1.168990091E1
7.733474542E0,-8.661887512E0,-5.520969086E0,-4.593797150E0,1.125221610E1
7.743444542E0,-8.523126068E0,-5.277275848E0,-4.091741180E0,1.082754193E1
7.753414542E0,-8.455766144E0,-5.153632965E0,-3.456162872E0,1.048832568E1
7.763385542E0,-8.372539215E0,-5.067262573E0,-2.873873749E0,1.019978986E1
7.773355542E0,-8.291258240E0,-5.006638641E0,-2.386936340E0,9.975412712E0
7.783325542E0,-8.309669952E0,-5.066214752E0,-1.920057220E0,9.919867255E0
7.793296542E0,-8.391549683E0,-5.133574677E0,-1.506018219E0,9.951873487E0
7.803266542E0,-8.392148438E0,-5.109175415E0,-1.154998169E0,9.892716997E0
7.813236542E0,-8.388106842E0,-5.067262573E0,-9.925859070E-1,9.850010820E0
7.823207542E0,-8.424780579E0,-5.056035919E0,-1.048719177E0,9.881307551E0
7.833177542E0,-8.492290192E0,-5.066963196E0,-1.194366302E0,9.960904557E0
7.843147542E0,-8.569529572E0,-5.044509888E0,-1.361119537E0,1.003676061E1
7.853118542E0,-8.646768951E0,-5.033881989E0,-1.505718842E0,1.011799241E1
7.863088542E0,-8.690178680E0,-5.086722107E0,-1.688189392E0,1.020999171E1
7.873058542E0,-8.899593201E0,-5.182373199E0,-1.769620056E0,1.044946440E1
7.883028542E0,-9.136999512E0,-5.375022583E0,-1.804647217E0,1.075324971E1
7.892999542E0,-9.327403564E0,-5.534590759E0,-1.805245972E0,1.099504730E1
7.902969542E0,-9.670789490E0,-5.594615936E0,-1.741179199E0,1.130732514E1
7.912939542E0,-1.006806335E1,-5.663472748E0,-1.760039978E0,1.168497172E1
7.922910542E0,-1.038570282E1,-5.672603760E0,-1.847158813E0,1.197719717E1
7.932880542E0,-1.055455170E1,-5.567671967E0,-1.935624847E0,1.208901055E1
7.942850542E0,-1.065229843E1,-5.408253479E0,-2.026186523E0,1.211718199E1
7.952821542E0,-1.070648575E1,-5.233117676E0,-2.179318085E0,1.211461039E1
7.962791542E0,-1.079989151E1,-5.071154480E0,-2.334844666E0,1.215753939E1
7.972761542E0,-1.088805817E1,-4.970713348E0,-2.516566772E0,1.223073629E1
7.982732542E0,-1.106034988E1,-4.832550659E0,-2.638862457E0,1.235509937E1
7.992702542E0,-1.117590958E1,-4.730912018E0,-2.725083160E0,1.243818964E1
8.002672542E0,-1.126183090E1,-4.736300812E0,-2.822380829E0,1.253902764E1
8.012643542E0,-1.129027176E1,-4.793182526E0,-2.896327057E0,1.260291814E1
8.022613542E0,-1.130060028E1,-4.866829376E0,-2.939587097E0,1.265032676E1
8.032583542E0,-1.129595993E1,-5.014422455E0,-2.899769897E0,1.269455823E1
8.042554542E0,-1.123758133E1,-5.173092499E0,-2.872227173E0,1.270014996E1
8.052524542E0,-1.119611755E1,-5.330265656E0,-2.880310364E0,1.273031689E1
8.062494542E0,-1.115255814E1,-5.389542389E0,-2.841990051E0,1.270840775E1
8.072465542E0,-1.108699448E1,-5.359904022E0,-2.826422424E0,1.263482020E1
8.082435542E0,-1.130434250E1,-5.452112274E0,-3.078348541E0,1.292245787E1
8.092405542E0,-1.184337158E1,-5.924230499E0,-3.509152679E0,1.369949306E1
8.102375542E0,-1.249945724E1,-6.715485077E0,-3.930227051E0,1.472347975E1
8.112346542E0,-1.290586212E1,-7.542365570E0,-4.221371613E0,1.553282118E1
8.122316542E0,-1.283520905E1,-8.023764496E0,-4.247417450E0,1.572144850E1
8.132286542E0,-1.253283783E1,-7.932753754E0,-4.024231567E0,1.536863839E1
8.142257542E0,-1.222432938E1,-7.483687592E0,-3.808230743E0,1.483045616E1
8.152227542E0,-1.202434525E1,-6.718329163E0,-3.587888947E0,1.423354392E1
8.162197542E0,-1.202703964E1,-5.873186646E0,-3.427422638E0,1.381633924E1
8.172168542E0,-1.236383926E1,-5.337001648E0,-3.254981232E0,1.385434989E1
8.182138542E0,-1.273671387E1,-5.132526855E0,-3.105741577E0,1.407879053E1
8.192108542E0,-1.301528458E1,-5.227130127E0,-3.069067841E0,1.435756593E1
8.202079542E0,-1.312021637E1,-5.663772125E0,-3.090922394E0,1.462095050E1
8.212049542E0,-1.297965866E1,-6.394402771E0,-3.032244415E0,1.478358657E1
8.222019542E0,-1.252520370E1,-7.178771667E0,-2.782114563E0,1.470223289E1
8.231990542E0,-1.191821594E1,-7.841293945E0,-2.498604126E0,1.448353495E1
8.241960542E0,-1.126542343E1,-8.349636841E0,-2.163451080E0,1.418825997E1
8.251930542E0,-1.065514252E1,-8.701255646E0,-1.815574493E0,1.387588637E1
8.261901542E0,-1.027882507E1,-9.002279663E0,-1.528022461E0,1.374882310E1
8.271871542E0,-9.941576385E0,-9.204359436E0,-1.132095795E0,1.359547037E1
8.281841542E0,-9.672286377E0,-9.137598267E0,-5.968089294E-1,1.331934708E1
8.291812542E0,-9.487271118E0,-8.856033783E0,-3.397933960E-2,1.297839752E1
8.301782542E0,-9.363029480E0,-8.536897430E0,4.454736328E-1,1.267846148E1
8.311752542E0,-9.257947998E0,-8.230035553E0,8.578660583E-1,1.241688449E1
8.321722542E0,-9.027127991E0,-7.929909668E0,1.135987701E0,1.206909173E1
8.331693542E0,-8.757538605E0,-7.653584290E0,1.271605682E0,1.169994940E1
8.341663542E0,-8.508606262E0,-7.440128174E0,1.306034088E0,1.137794414E1
8.351633542E0,-8.241561584E0,-7.274422760E0,1.135239258E0,1.105121405E1
8.361604542E0,-7.983049164E0,-7.111860809E0,8.518785095E-1,1.072535944E1
8.371574542E0,-7.699688416E0,-6.964866486E0,5.213658142E-1,1.039549851E1
8.381544542E0,-7.445816345E0,-6.767726440E0,1.489402771E-1,1.006302566E1
8.391515542E0,-7.277117157E0,-6.575376434E0,-2.134561157E-1,9.810075070E0
8.401485542E0,-7.116351471E0,-6.389762421E0,-5.161267090E-1,9.577990856E0
8.411455542E0,-6.953190765E0,-6.196514282E0,-7.794291687E-1,9.346184296E0
8.421426542E0,-6.832541656E0,-6.057004395E0,-9.897418213E-1,9.184253731E0
8.431396542E0,-6.803951111E0,-5.903872833E0,-1.139879608E0,9.080131644E0
8.441366542E0,-6.781348114E0,-5.786816254E0,-1.231938171E0,8.999533113E0
8.451337542E0,-6.752158813E0,-5.725294189E0,-1.339264984E0,8.953450335E0
8.461307542E0,-6.740034027E0,-5.663622437E0,-1.331032104E0,8.903725302E0
8.471277542E0,-6.738537140E0,-5.650150452E0,-1.253044281E0,8.882691196E0
8.481248542E0,-6.655310211E0,-5.655539246E0,-1.157842255E0,8.810157595E0
8.491218542E0,-6.526428223E0,-5.682183838E0,-9.800120544E-1,8.708725632E0
8.501188542E0,-6.439758453E0,-5.704637146E0,-8.382568359E-1,8.643844540E0
8.511159542E0,-6.339616699E0,-5.704786835E0,-7.342231750E-1,8.560047686E0
8.521129542E0,-6.249953156E0,-5.700146484E0,-6.512956238E-1,8.483971380E0
8.531099542E0,-6.114035797E0,-5.680836639E0,-5.857319641E-1,8.366386352E0
8.541070542E0,-6.008804626E0,-5.650749207E0,-5.210664368E-1,8.264878091E0
8.551040542E0,-5.926326141E0,-5.592969360E0,-4.571493530E-1,8.161595024E0
8.561010542E0,-5.865103455E0,-5.551655273E0,-4.266128540E-1,8.087169674E0
8.570980542E0,-5.802234192E0,-5.504952393E0,-3.992198181E-1,8.008108324E0
8.580951542E0,-5.764512634E0,-5.491181030E0,-3.496728516E-1,7.968999066E0
8.590921542E0,-5.679639130E0,-5.539231110E0,-3.095562744E-1,7.939597409E0
8.600891542E0,-5.629493408E0,-5.613925781E0,-2.414479065E-1,7.953971071E0
8.610862542E0,-5.614225159E0,-5.803581390E0,-1.850152588E-1,8.076837979E0
8.620832542E0,-5.533243561E0,-6.104455719E0,-1.199006653E-1,8.239875005E0
8.630802417E0,-5.355413361E0,-6.390061798E0,1.152603149E-2,8.337474132E0
8.640773417E0,-4.983586578E0,-6.482868805E0,1.975891113E-1,8.179411017E0
8.650743417E0,-4.677622833E0,-6.446494446E0,3.543132019E-1,7.972639704E0
8.660713417E0,-4.452041931E0,-6.403234406E0,5.156776428E-1,7.815882013E0
8.670684417E0,-4.331093445E0,-6.399492188E0,6.744973755E-1,7.756727235E0
8.680654417E0,-4.285588074E0,-6.426286469E0,7.375163269E-1,7.759339743E0
8.690624417E0,-4.669389954E0,-6.637197876E0,5.677693176E-1,8.134983724E0
8.700595417E0,-5.445975037E0,-7.232210541E0,4.041595459E-3,9.053371181E0
8.710565417E0,-6.292913818E0,-8.042924652E0,-8.087681580E-1,1.024419383E1
8.720535417E0,-6.723568268E0,-8.689430237E0,-1.518143005E0,1.109131761E1
8.730506417E0,-6.631210327E0,-9.020391998E0,-1.920506287E0,1.135908300E1
8.740476417E0,-6.251450043E0,-9.045240326E0,-2.077829132E0,1.118992288E1
8.750446417E0,-5.975274353E0,-8.895701294E0,-2.026336212E0,1.090611955E1
8.760417417E0,-5.767506409E0,-8.554411011E0,-1.754351807E0,1.046517215E1
8.770387417E0,-5.788911896E0,-8.194559326E0,-1.340013428E0,1.012215093E1
8.780357417E0,-6.254443817E0,-7.927065582E0,-1.040186920E0,1.015078445E1
8.790327417E0,-7.082521820E0,-7.770042114E0,-8.012837219E-1,1.054408485E1
8.800298417E0,-8.000413055E0,-7.744445343E0,-5.941145325E-1,1.115060603E1
8.810268417E0,-8.794811096E0,-7.754324799E0,-4.698728943E-1,1.173452325E1
8.820238417E0,-9.539662170E0,-7.779771881E0,-6.107299805E-1,1.232489334E1
8.830209417E0,-1.027328659E1,-7.876470795E0,-9.842033386E-1,1.298259858E1
8.840179417E0,-1.082339264E1,-7.911198578E0,-1.459015961E0,1.348560784E1
8.850149417E0,-1.113564331E1,-7.852670288E0,-2.056872711E0,1.378033773E1
8.860120417E0,-1.121827148E1,-7.729476471E0,-2.611768799E0,1.387140072E1
8.870090417E0,-1.114058304E1,-7.617958374E0,-3.103346558E0,1.384834431E1
8.880060417E0,-1.089314758E1,-7.369624786E0,-3.493435364E0,1.360794343E1
8.890031417E0,-1.057670563E1,-6.990762634E0,-3.694916382E0,1.320567572E1
8.900001417E0,-1.020472916E1,-6.511010284E0,-3.815266113E0,1.269196626E1
8.909971417E0,-9.852361908E0,-6.010600891E0,-3.831582184E0,1.216048438E1
8.919942417E0,-9.571845245E0,-5.570066986E0,-3.740870819E0,1.168931059E1
8.929912417E0,-9.291927338E0,-5.218148804E0,-3.525169373E0,1.122478551E1
8.939882417E0,-9.008267212E0,-4.957989807E0,-3.232228546E0,1.077858258E1
8.949853417E0,-8.786129150E0,-4.769980774E0,-2.904559937E0,1.041082372E1
8.959823417E0,-8.623716888E0,-4.574337616E0,-2.610421600E0,1.010481858E1
8.969793417E0,-8.432414703E0,-4.426744537E0,-2.371219025E0,9.814497674E0
8.979763417E0,-8.250393219E0,-4.341272278E0,-2.148332520E0,9.567181710E0
8.989734417E0,-8.120613098E0,-4.279600525E0,-1.920805664E0,9.378103867E0
8.999704417E0,-7.964487762E0,-4.247417450E0,-1.710343323E0,9.186887100E0
9.009674417E0,-7.778125305E0,-4.264631653E0,-1.556313629E0,9.006021792E0
9.019645417E0,-7.636220398E0,-4.381538544E0,-1.379830627E0,8.911435044E0
9.029615417E0,-7.634723511E0,-4.669839020E0,-1.178948364E0,9.026977279E0
9.039585417E0,-7.779322815E0,-5.069956970E0,-9.499246216E-1,9.334060420E0
9.049556417E0,-7.864944763E0,-5.416935425E0,-7.047344971E-1,9.575865300E0
9.059526417E0,-7.903414764E0,-5.664969635E0,-4.492158508E-1,9.734353640E0
9.069496417E0,-8.095615082E0,-5.893843689E0,-2.574645996E-1,1.001711860E1
9.079467417E0,-8.425529022E0,-6.103407898E0,-1.565744019E-1,1.040507774E1
9.089437417E0,-8.759185181E0,-6.270610199E0,-9.789642334E-2,1.077281119E1
9.099407417E0,-9.264983368E0,-6.335126038E0,-5.478607178E-2,1.122393604E1
9.109378417E0,-9.709558868E0,-6.237828369E0,1.347198486E-3,1.154062555E1
9.119348417E0,-9.992470551E0,-5.989943848E0,-3.038681030E-2,1.165031409E1
9.129318417E0,-1.029289581E1,-5.682932281E0,-1.930984497E-1,1.175911181E1
9.139289417E0,-1.055515045E1,-5.351521454E0,-4.459226990E-1,1.184266988E1
9.149259417E0,-1.083596649E1,-5.021906891E0,-8.039781189E-1,1.197013364E1
9.159229417E0,-1.119312378E1,-4.703518982E0,-1.236428833E0,1.220401028E1
9.169200417E0,-1.151974457E1,-4.369413757E0,-1.659598846E0,1.243183654E1
9.179170417E0,-1.177077255E1,-4.097728729E0,-2.064357147E0,1.263344916E1
9.189140417E0,-1.188872726E1,-3.986959076E0,-2.488574982E0,1.278400110E1
9.199110417E0,-1.194456116E1,-3.990551605E0,-2.905158691E0,1.292427910E1
9.209081417E0,-1.195069839E1,-4.124073944E0,-3.181633759E0,1.303648616E1
9.219051417E0,-1.195893127E1,-4.367467804E0,-3.311563568E0,1.315512317E1
9.229021417E0,-1.188438629E1,-4.705914001E0,-3.356769562E0,1.321560313E1
9.238992417E0,-1.177481415E1,-5.040617981E0,-3.332969055E0,1.323490690E1
9.248962417E0,-1.170760391E1,-5.318140869E0,-3.256927185E0,1.326492316E1
9.258932417E0,-1.173050629E1,-5.528004456E0,-3.194806366E0,1.335553813E1
9.268903417E0,-1.208646606E1,-5.934259644E0,-3.363954620E0,1.387855504E1
9.278873417E0,-1.283775375E1,-6.720574493E0,-3.616928558E0,1.493506663E1
9.288843417E0,-1.361478790E1,-7.764204254E0,-3.691922607E0,1.610203744E1
9.298814417E0,-1.405936340E1,-8.635242920E0,-3.554208984E0,1.687795962E1
9.308784417E0,-1.398227371E1,-8.989556122E0,-3.298390961E0,1.694684278E1
9.318754417E0,-1.356015152E1,-8.787775726E0,-2.940485229E0,1.642404228E1
9.328725417E0,-1.309207489E1,-8.028105469E0,-2.686313782E0,1.559067619E1
9.338695417E0,-1.290945465E1,-6.998097382E0,-2.592458954E0,1.491134567E1
9.348665417E0,-1.302561310E1,-6.197113037E0,-2.593357086E0,1.465593080E1
9.358636417E0,-1.324580521E1,-5.724096680E0,-2.638263702E0,1.466891522E1
9.368606417E0,-1.353470444E1,-5.602848816E0,-2.758164368E0,1.490595887E1
9.378576417E0,-1.373708359E1,-5.898933105E0,-2.733016663E0,1.519783726E1
9.388546417E0,-1.364801880E1,-6.456972656E0,-2.597847748E0,1.532023910E1
9.398517417E0,-1.320284454E1,-7.124434662E0,-2.341580658E0,1.518405984E1
9.408487417E0,-1.266636017E1,-7.769293671E0,-2.131417694E0,1.501138053E1
9.418457417E0,-1.207987976E1,-8.287516022E0,-1.967059479E0,1.478092486E1
9.428428417E0,-1.147513733E1,-8.700956268E0,-1.802401886E0,1.451323773E1
9.438398417E0,-1.104732697E1,-9.019942932E0,-1.595232697E0,1.435087353E1
9.448368417E0,-1.076516373E1,-9.241482239E0,-1.318308563E0,1.424891861E1
9.458339417E0,-1.045575714E1,-9.279203796E0,-9.208850098E-1,1.400980049E1
9.468309417E0,-1.010608429E1,-9.165440369E0,-5.183720398E-1,1.365309292E1
9.478279417E0,-9.686656494E0,-8.906628571E0,-1.565744019E-1,1.315993397E1
9.488250417E0,-9.236093445E0,-8.635392609E0,7.155120850E-2,1.264438797E1
9.498220417E0,-8.832981720E0,-8.412506104E0,1.395098877E-1,1.219882322E1
9.508190417E0,-8.403824158E0,-8.193361816E0,9.160949707E-2,1.173728378E1
9.518161417E0,-8.002059631E0,-7.958051147E0,-4.879852295E-2,1.128565097E1
9.528131417E0,-7.721692657E0,-7.692054291E0,-2.984793091E-1,1.090327137E1
9.538101417E0,-7.498057709E0,-7.440876617E0,-5.456153870E-1,1.057758055E1
9.548071417E0,-7.238796844E0,-7.202123108E0,-7.520361328E-1,1.023896066E1
9.558042417E0,-7.008276215E0,-7.022796021E0,-9.529183960E-1,9.967128619E0
9.568012417E0,-6.840026093E0,-6.879094849E0,-1.092278595E0,9.762221848E0
9.577982417E0,-6.650969238E0,-6.807244263E0,-1.193318481E0,9.591557499E0
9.587953417E0,-6.421047363E0,-6.742878113E0,-1.269959106E0,9.397289536E0
9.597923417E0,-6.199657745E0,-6.581363983E0,-1.276994476E0,9.131310034E0
9.607893417E0,-6.073470154E0,-6.447991333E0,-1.265318756E0,8.947885979E0
9.617864417E0,-5.941744080E0,-6.338868256E0,-1.283580780E0,8.782548212E0
9.627834667E0,-5.879174194E0,-6.228547668E0,-1.258133698E0,8.656927611E0
9.637804667E0,-5.809419250E0,-6.159541168E0,-1.181642761E0,8.549010413E0
9.647775667E0,-5.784121857E0,-6.099066925E0,-1.031654663E0,8.468706770E0
9.657745667E0,-5.770649872E0,-5.972729645E0,-8.593629456E-1,8.349395429E0
9.667715667E0,-5.772296448E0,-5.921386414E0,-7.063810730E-1,8.299469716E0
9.677686667E0,-5.754333801E0,-5.901627502E0,-5.080435181E-1,8.258309324E0
9.687656667E0,-5.671406250E0,-5.793701935E0,-2.755769348E-1,8.112199061E0
9.697626667E0,-5.693260803E0,-5.664819946E0,-9.879455566E-2,8.032008713E0
9.707597667E0,-5.651347961E0,-5.584586792E0,3.397933960E-2,7.945218563E0
9.717567667E0,-5.617518311E0,-5.423222351E0,1.546284485E-1,7.809722312E0
9.727537667E0,-5.773044891E0,-5.277425537E0,2.127076721E-1,7.824609394E0
9.737507667E0,-5.962550812E0,-5.246290283E0,2.112107849E-1,7.944821201E0
9.747478667E0,-6.107299805E0,-5.216202850E0,1.899549866E-1,8.033925938E0
9.757448667E0,-6.157744904E0,-5.198389893E0,2.180964661E-1,8.061553563E0
9.767418667E0,-6.106401672E0,-5.206622772E0,2.929408264E-1,8.030123063E0
9.777389667E0,-6.035149841E0,-5.299130402E0,3.453318787E-1,8.038847599E0
9.787359667E0,-5.893544312E0,-5.458848267E0,3.838018799E-1,8.042399694E0
9.797329667E0,-5.698948975E0,-5.689518585E0,4.421804810E-1,8.064996263E0
9.807300667E0,-5.523663483E0,-5.913003845E0,4.980143738E-1,8.106940919E0
9.817270667E0,-5.345683594E0,-6.174060974E0,5.668711853E-1,8.186373125E0
9.827240667E0,-5.298980713E0,-6.448590088E0,5.773493958E-1,8.366411599E0
9.837211667E0,-5.467380524E0,-6.875652008E0,4.215234375E-1,8.794573460E0
9.847181667E0,-5.888754272E0,-7.543413391E0,6.631210327E-2,9.570000510E0
9.857151667E0,-6.213578796E0,-8.214168549E0,-3.393443298E-1,1.030515798E1
9.867122667E0,-6.395300903E0,-8.625662842E0,-6.923103333E-1,1.076016853E1
9.877092667E0,-6.409671021E0,-8.651109924E0,-9.699829102E-1,1.081047882E1
9.887062667E0,-6.207591248E0,-8.357720032E0,-1.057700500E0,1.046443518E1
9.897033667E0,-6.157744904E0,-8.107141113E0,-1.075363770E0,1.023718548E1
9.907003667E0,-6.184090118E0,-7.923173676E0,-1.089434509E0,1.010972399E1
9.916973667E0,-6.476581879E0,-7.757917328E0,-1.073717194E0,1.016288653E1
9.926943667E0,-6.939419403E0,-7.487729187E0,-1.041534119E0,1.026189180E1
9.936914667E0,-7.643255768E0,-7.212002563E0,-1.053060150E0,1.056131031E1
9.946884667E0,-8.555608521E0,-7.054380341E0,-1.202898560E0,1.115390892E1
9.956854667E0,-9.233099670E0,-6.944808197E0,-1.470242615E0,1.164654901E1
9.966825667E0,-9.760902100E0,-6.876849518E0,-1.837429047E0,1.208066284E1
9.976795667E0,-1.010488678E1,-6.822512512E0,-2.227218475E0,1.239418880E1
9.986765667E0,-1.022418869E1,-6.753056946E0,-2.587369537E0,1.252327008E1
9.996736667E0,-1.026191025E1,-6.744674377E0,-2.881058807E0,1.261340296E1
1.000670667E1,-1.030636780E1,-6.729406128E0,-3.154091034E0,1.270647135E1
1.001667667E1,-1.032388138E1,-6.757996674E0,-3.278182983E0,1.276712691E1
1.002664767E1,-1.026550278E1,-6.810537415E0,-3.368445282E0,1.277146784E1
1.003661767E1,-1.019904099E1,-6.755901031E0,-3.379522247E0,1.269187954E1
1.004658767E1,-1.003707779E1,-6.608158264E0,-3.246748352E0,1.244797417E1
1.005655867E1,-9.788444824E0,-6.437363434E0,-3.021915894E0,1.209897829E1
1.006652867E1,-9.528136139E0,-6.192472687E0,-2.765050049E0,1.169519551E1
1.007649867E1,-9.289232941E0,-5.938301239E0,-2.481988678E0,1.130104146E1
1.008646967E1,-8.995843048E0,-5.697751465E0,-2.261646881E0,1.088598229E1
1.009643967E1,-8.740474091E0,-5.500312042E0,-2.078128510E0,1.053413205E1
1.010640967E1,-8.430917816E0,-5.315147095E0,-2.000290375E0,1.016525088E1
1.011637967E1,-8.243357849E0,-5.124293976E0,-1.989512787E0,9.908052206E0
1.012635067E1,-8.082592163E0,-4.945715332E0,-2.090402985E0,9.703513841E0
1.013632067E1,-7.922275543E0,-4.749323730E0,-2.259850616E0,9.509229753E0
1.014629067E1,-7.779771881E0,-4.634961548E0,-2.432441711E0,9.376806053E0
1.015626167E1,-7.645950165E0,-4.586911469E0,-2.577041016E0,9.281241896E0
1.016623167E1,-7.471862183E0,-4.615502014E0,-2.719694366E0,9.193928473E0
1.017620167E1,-7.223229218E0,-4.724176025E0,-2.811453552E0,9.077287619E0
1.018617267E1,-7.138056335E0,-4.883145447E0,-2.854264526E0,9.107347786E0
1.019614267E1,-7.285499725E0,-5.030738525E0,-2.877466278E0,9.309492389E0
1.020611267E1,-7.579488373E0,-5.122348022E0,-2.860850830E0,9.584965348E0
1.021608367E1,-7.926017761E0,-5.200784912E0,-2.794538727E0,9.883287305E0
1.022605367E1,-8.183482361E0,-5.296585693E0,-2.744093628E0,1.012685802E1
1.023602367E1,-8.383616180E0,-5.413193207E0,-2.659669189E0,1.032770648E1
1.024599467E1,-8.668174438E0,-5.605992279E0,-2.596051483E0,1.064442957E1
1.025596467E1,-8.906029816E0,-5.763315125E0,-2.559826813E0,1.091264778E1
1.026593467E1,-9.150321808E0,-5.830525360E0,-2.452949066E0,1.112386508E1
1.027590467E1,-9.277257843E0,-5.820346527E0,-2.322420502E0,1.119542691E1
1.028587567E1,-9.516909485E0,-5.781277771E0,-2.217189331E0,1.135388336E1
1.029584567E1,-9.708511047E0,-5.777984619E0,-2.122586060E0,1.149546278E1
1.030581567E1,-9.797276459E0,-5.722450104E0,-2.036964111E0,1.152745783E1
1.031578667E1,-1.002255798E1,-5.611381073E0,-1.904339905E0,1.164327173E1
1.032575667E1,-1.028481262E1,-5.470224609E0,-1.804647217E0,1.178802271E1
1.033572667E1,-1.044273422E1,-5.367687836E0,-1.789678345E0,1.187710905E1
1.034569767E1,-1.068912186E1,-5.296585693E0,-1.794468384E0,1.206363390E1
1.035566767E1,-1.099792969E1,-5.287155304E0,-1.843416595E0,1.234125818E1
1.036563767E1,-1.121018829E1,-5.257367249E0,-1.961071930E0,1.253610925E1
1.037560867E1,-1.136511612E1,-5.217999115E0,-2.092798004E0,1.267963653E1
1.038557867E1,-1.145762375E1,-5.175936584E0,-2.267185364E0,1.277527264E1
1.039554867E1,-1.135403915E1,-5.035528564E0,-2.471660156E0,1.266411690E1
1.040551867E1,-1.111872849E1,-4.747826843E0,-2.673290863E0,1.238202192E1
1.041548967E1,-1.092787537E1,-4.484075317E0,-3.022963715E0,1.219277249E1
1.042545967E1,-1.118474121E1,-4.619992676E0,-3.496728516E0,1.259642325E1
1.043542967E1,-1.168245621E1,-5.191803589E0,-3.871249695E0,1.335743919E1
1.044540067E1,-1.207658661E1,-5.931864624E0,-3.981420593E0,1.403148859E1
1.045537067E1,-1.214604218E1,-6.612648926E0,-3.876189423E0,1.436239224E1
1.046534067E1,-1.179457306E1,-6.944209442E0,-3.485352173E0,1.412379829E1
1.047531167E1,-1.143232635E1,-7.018005981E0,-3.057990875E0,1.375869914E1
1.048528167E1,-1.125659180E1,-6.893764343E0,-2.573149109E0,1.344826911E1
1.049525167E1,-1.111693222E1,-6.429729309E0,-2.147584076E0,1.302074185E1
1.050522267E1,-1.116827545E1,-5.833818512E0,-1.819765778E0,1.273088223E1
1.051519267E1,-1.136451736E1,-5.432802429E0,-1.596879272E0,1.269715010E1
1.052516267E1,-1.169922134E1,-5.207520905E0,-1.464554443E0,1.288933566E1
1.053513367E1,-1.205443268E1,-5.194647675E0,-1.400337982E0,1.320055522E1
1.054510367E1,-1.220771393E1,-5.441184998E0,-1.237326965E0,1.342258364E1
1.055507367E1,-1.217478241E1,-5.904022522E0,-1.024170227E0,1.356951485E1
1.056504367E1,-1.203482346E1,-6.555018768E0,-8.310717773E-1,1.372938189E1
1.057501467E1,-1.182256485E1,-7.232060852E0,-6.761439514E-1,1.387562303E1
1.058498467E1,-1.164233963E1,-7.768096161E0,-6.011499023E-1,1.400888187E1
1.059495467E1,-1.133233429E1,-8.272098083E0,-4.131408691E-1,1.403638460E1
1.060492567E1,-1.100436630E1,-8.584947510E0,-1.411564636E-1,1.395769775E1
1.061489567E1,-1.089584198E1,-8.756640472E0,8.098159790E-2,1.397872250E1
1.062486567E1,-1.083896027E1,-8.858129425E0,3.037184143E-1,1.400149140E1
1.063483667E1,-1.079629898E1,-8.855135651E0,5.180726624E-1,1.397289871E1
1.064480667E1,-1.071112610E1,-8.745862885E0,7.538323975E-1,1.384870403E1
1.065477667E1,-1.052790710E1,-8.552914124E0,9.300160217E-1,1.359610598E1
1.066474767E1,-1.028151947E1,-8.344697113E0,9.544152832E-1,1.327608832E1
1.067471767E1,-1.001417542E1,-8.073760529E0,8.948391724E-1,1.289457465E1
1.068468767E1,-9.756710815E0,-7.822882233E0,7.382647705E-1,1.252740704E1
1.069465867E1,-9.517657928E0,-7.635621643E0,4.727169800E-1,1.221114211E1
1.070462867E1,-9.234147491E0,-7.460785217E0,1.725910950E-1,1.187276647E1
1.071459867E1,-8.934919739E0,-7.288942566E0,-9.834548950E-2,1.153131156E1
1.072456867E1,-8.657247162E0,-7.150779877E0,-3.279679871E-1,1.123339416E1
1.073453967E1,-8.430468750E0,-7.002288666E0,-5.522016907E-1,1.097313887E1
1.074450967E1,-8.280630341E0,-6.885830841E0,-7.117698669E-1,1.079305895E1
1.075447967E1,-8.094567261E0,-6.783443756E0,-8.042774963E-1,1.059169442E1
1.076445067E1,-7.936645660E0,-6.689888306E0,-8.647517395E-1,1.041598509E1
1.077442067E1,-7.796986084E0,-6.646328888E0,-9.156459045E-1,1.028615998E1
1.078439067E1,-7.618856506E0,-6.585405579E0,-8.767268372E-1,1.010857018E1
1.079436167E1,-7.426656189E0,-6.555318146E0,-8.560697937E-1,9.942850378E0
1.080433167E1,-7.263794861E0,-6.546935577E0,-8.921447754E-1,9.819419715E0
1.081430167E1,-7.156767426E0,-6.551725616E0,-8.595126343E-1,9.740800301E0
1.082427267E1,-7.085964661E0,-6.526877289E0,-8.153544617E-1,9.668289674E0
1.083424267E1,-7.079528046E0,-6.492299194E0,-7.583230591E-1,9.635596507E0
1.084421267E1,-7.043902130E0,-6.464307404E0,-6.619235229E-1,9.583421632E0
1.085418367E1,-7.031777344E0,-6.456972656E0,-5.212161255E-1,9.560860565E0
1.086415367E1,-6.999893646E0,-6.465953979E0,-4.212240601E-1,9.538579644E0
1.087412367E1,-6.940317535E0,-6.480773163E0,-2.833607483E-1,9.499932715E0
1.088409367E1,-6.837481384E0,-6.451284485E0,-2.070195007E-1,9.402822994E0
1.089406467E1,-6.785539398E0,-6.434968414E0,-1.243913269E-1,9.352424104E0
1.090403467E1,-6.711593170E0,-6.451733551E0,-1.032852173E-1,9.310264042E0
1.091400467E1,-6.684200134E0,-6.527176666E0,-1.169068909E-1,9.343245362E0
1.092397567E1,-6.782395935E0,-6.644382935E0,-7.918533325E-2,9.494998132E0
1.093394567E1,-6.866371307E0,-6.834637299E0,-8.876541138E-2,9.688508721E0
1.094391567E1,-6.876849518E0,-6.999594269E0,-1.146615601E-1,9.813181263E0
1.095388667E1,-6.831493835E0,-7.153923340E0,-1.124162292E-1,9.892449878E0
1.096385667E1,-6.710844727E0,-7.254214783E0,-4.670288086E-2,9.882370678E0
1.097382667E1,-6.509663086E0,-7.191944275E0,8.966354370E-2,9.700918281E0
1.098379767E1,-6.344855804E0,-7.143145752E0,2.055226135E-1,9.556357358E0
1.099376767E1,-6.361620941E0,-7.160359955E0,3.037184143E-1,9.582965123E0
1.100373767E1,-6.367907867E0,-7.206015015E0,3.832031250E-1,9.624123214E0
1.101370767E1,-6.462062073E0,-7.323071594E0,3.177891541E-1,9.771725219E0
1.102367867E1,-6.599775696E0,-7.681725769E0,1.136137390E-1,1.012812214E1
1.103364867E1,-6.511010284E0,-8.081843719E0,-9.175918579E-2,1.037872211E1
1.104361867E1,-6.256389771E0,-8.398884430E0,-3.507206726E-1,1.047886815E1
1.105358967E1,-5.791456604E0,-8.600814514E0,-5.081932068E-1,1.038138913E1
1.106355967E1,-5.039570160E0,-8.481811981E0,-4.327500916E-1,9.875508823E0
1.107352967E1,-4.321962433E0,-8.133037262E0,-2.294728088E-1,9.212942643E0
1.108350067E1,-3.850592651E0,-7.673343201E0,6.825805664E-2,8.585564559E0
1.109347067E1,-3.514391785E0,-7.187453613E0,4.466711426E-1,8.013111391E0
1.110344067E1,-3.445684662E0,-6.920858002E0,8.499325562E-1,7.777750550E0
1.111341167E1,-3.810925140E0,-6.784790955E0,1.193318481E0,7.872772556E0
1.112338167E1,-4.639601898E0,-6.727310486E0,1.470691681E0,8.303345480E0
1.113335167E1,-5.573060760E0,-6.647975464E0,1.326541443E0,8.775778952E0
1.114332267E1,-6.287674713E0,-6.546935577E0,8.068222046E-1,9.113077462E0
1.115329267E1,-7.019053802E0,-6.497987366E0,1.667532349E-1,9.566543928E0
1.116326267E1,-7.603288879E0,-6.622079315E0,-5.182223511E-1,1.009606313E1
1.117323267E1,-8.034542084E0,-6.758445740E0,-1.210532684E0,1.056862549E1
1.118320367E1,-8.199648743E0,-6.790928192E0,-2.016007690E0,1.083583094E1
1.119317367E1,-8.348888397E0,-6.792874146E0,-2.857407990E0,1.113606111E1
1.120314367E1,-8.494385834E0,-6.727160797E0,-3.549119568E0,1.140199688E1
1.121311467E1,-8.387657776E0,-6.544690247E0,-4.043391724E0,1.138133516E1
1.122308467E1,-8.134085083E0,-6.266568604E0,-4.260889435E0,1.111703202E1
1.123305467E1,-7.872578888E0,-5.929020538E0,-4.274660797E0,1.074260247E1
1.124302567E1,-7.644153900E0,-5.648354187E0,-4.118685150E0,1.035859842E1
1.125299567E1,-7.574099579E0,-5.445825348E0,-3.744014282E0,1.005194713E1
1.126296567E1,-7.719447327E0,-5.350623322E0,-3.207829285E0,9.925180385E0
1.127293667E1,-8.022866364E0,-5.303321686E0,-2.580184479E0,9.957356955E0
1.128290667E1,-8.305179291E0,-5.329517212E0,-1.944606171E0,1.005789491E1
1.129287667E1,-8.475525055E0,-5.434449005E0,-1.535207520E0,1.018452861E1
1.130284667E1,-8.669970703E0,-5.458548889E0,-1.341210938E0,1.033261800E1
1.131281767E1,-8.920699310E0,-5.471721497E0,-1.324595490E0,1.054860965E1
1.132278767E1,-9.021739197E0,-5.450016632E0,-1.462009735E0,1.064104938E1
1.133275767E1,-9.009015656E0,-5.424270172E0,-1.586251373E0,1.063490778E1
1.134272867E1,-9.134754181E0,-5.392685852E0,-1.652862854E0,1.073576966E1
1.135269867E1,-9.386979675E0,-5.374423828E0,-1.639540558E0,1.094019708E1
1.136266867E1,-9.722282410E0,-5.352569275E0,-1.551373901E0,1.120622747E1
1.137263967E1,-1.007749374E1,-5.325475616E0,-1.393901367E0,1.148301057E1
1.138260967E1,-1.048270111E1,-5.279371490E0,-1.264720001E0,1.180501176E1
1.139257967E1,-1.095017899E1,-5.191204834E0,-1.215771790E0,1.217920886E1
1.140255067E1,-1.137993530E1,-5.112169189E0,-1.359472961E0,1.254931743E1
1.141252067E1,-1.161749130E1,-5.037773895E0,-1.641935577E0,1.276875963E1
1.142249067E1,-1.178484329E1,-4.938230896E0,-1.904938660E0,1.291887948E1
1.143246067E1,-1.186208267E1,-4.896467743E0,-2.158062286E0,1.301313315E1
1.144243167E1,-1.194680649E1,-4.880151672E0,-2.404300232E0,1.312717507E1
1.145240167E1,-1.195923065E1,-4.817581787E0,-2.486329651E0,1.313065601E1
1.146237167E1,-1.195982941E1,-4.696483612E0,-2.443668365E0,1.307921989E1
1.147234267E1,-1.186507645E1,-4.538412323E0,-2.398312683E0,1.292784318E1
1.148231267E1,-1.171778275E1,-4.471202087E0,-2.418670349E0,1.277294198E1
1.149228267E1,-1.157722504E1,-4.540358276E0,-2.519111481E0,1.268829837E1
1.150225367E1,-1.134625534E1,-4.612208862E0,-2.634970551E0,1.252809046E1
1.151222367E1,-1.113983459E1,-4.706213379E0,-2.719544678E0,1.239517174E1
1.152219367E1,-1.099448685E1,-4.800217896E0,-2.738704834E0,1.230533775E1
1.153216467E1,-1.084195404E1,-4.951104126E0,-2.736908569E0,1.222914829E1
1.154213467E1,-1.069106781E1,-5.118007050E0,-2.671793976E0,1.215036667E1
1.155210467E1,-1.056937088E1,-5.286406860E0,-2.492466888E0,1.207766904E1
1.156207467E1,-1.060320053E1,-5.503754883E0,-2.339784393E0,1.217348637E1
1.157204567E1,-1.058359131E1,-5.667364655E0,-2.194137268E0,1.220432978E1
1.158201567E1,-1.055485107E1,-5.721851349E0,-2.094743958E0,1.218738759E1
1.159198567E1,-1.054437286E1,-5.617218933E0,-2.010020142E0,1.211516111E1
1.160195667E1,-1.045066772E1,-5.419779510E0,-2.043849792E0,1.194854752E1
1.161192667E1,-1.059362045E1,-5.285508728E0,-2.201771393E0,1.204197634E1
1.162189667E1,-1.110286148E1,-5.553301849E0,-2.552042999E0,1.267381624E1
1.163186717E1,-1.181478104E1,-6.167774048E0,-2.889740753E0,1.363748838E1
1.164183717E1,-1.234827164E1,-6.892716522E0,-3.094215546E0,1.447630904E1
1.165180717E1,-1.240620117E1,-7.363487549E0,-3.159330139E0,1.476875565E1
1.166177817E1,-1.220472015E1,-7.489675140E0,-3.149001617E0,1.466174065E1
1.167174817E1,-1.209799210E1,-7.346572723E0,-3.091970215E0,1.448771284E1
1.168171817E1,-1.222118591E1,-7.076534271E0,-2.996169434E0,1.443647303E1
1.169168817E1,-1.259421021E1,-6.974296875E0,-2.940634918E0,1.469361362E1
1.170165917E1,-1.306587936E1,-6.968758392E0,-2.671793976E0,1.504723497E1
1.171162917E1,-1.345791412E1,-7.146588593E0,-2.234702911E0,1.540074927E1
1.172159917E1,-1.361838043E1,-7.507338409E0,-1.814376984E0,1.565606526E1
1.173157017E1,-1.333741470E1,-7.857909393E0,-1.402733002E0,1.554352054E1
1.174154017E1,-1.283131714E1,-8.192164307E0,-1.040486298E0,1.525899300E1
1.175151017E1,-1.231204697E1,-8.539891205E0,-7.698490906E-1,1.500362989E1
1.176148117E1,-1.178379547E1,-8.786727905E0,-4.095483398E-1,1.470483434E1
1.177145117E1,-1.135418884E1,-8.967701569E0,-6.586303711E-3,1.446849402E1
1.178142117E1,-1.093925171E1,-9.041797485E0,4.577481079E-1,1.419967827E1
1.179139217E1,-1.057386154E1,-8.948242035E0,8.565188599E-1,1.387844400E1
1.180136217E1,-1.028511200E1,-8.694369965E0,1.208437042E0,1.352168325E1
1.181133217E1,-1.003468277E1,-8.403973846E0,1.418600006E0,1.316563939E1
1.182130217E1,-9.777517548E0,-8.111631775E0,1.482517090E0,1.279047600E1
1.183127317E1,-9.509724426E0,-7.771838379E0,1.360221405E0,1.235663922E1
1.184124317E1,-9.163344727E0,-7.449408875E0,1.059047699E0,1.185673485E1
1.185121317E1,-8.748706970E0,-7.117548981E0,6.221063232E-1,1.129541471E1
1.186118417E1,-8.431516571E0,-6.778054962E0,1.420545959E-1,1.081908870E1
1.187115417E1,-8.185877380E0,-6.487509155E0,-3.188369751E-1,1.044978567E1
1.188112417E1,-8.046517181E0,-6.340814209E0,-7.527845764E-1,1.027224650E1
1.189109517E1,-7.749684448E0,-6.207890625E0,-1.008602600E0,9.980620936E0
1.190106517E1,-7.449708252E0,-6.021977234E0,-1.138682098E0,9.646707198E0
1.191103517E1,-7.288792877E0,-5.867199097E0,-1.250200195E0,9.439996153E0
1.192100617E1,-7.191345520E0,-5.764213257E0,-1.313668213E0,9.309528937E0
1.193097617E1,-7.114405518E0,-5.689967651E0,-1.276844788E0,9.198958112E0
1.194094617E1,-7.003935242E0,-5.629792786E0,-1.143771515E0,9.058580957E0
1.195091717E1,-6.896758118E0,-5.590274963E0,-9.556127930E-1,8.929145676E0
1.196088717E1,-6.764882355E0,-5.564827881E0,-8.132588196E-1,8.797291204E0
1.197085717E1,-6.637197876E0,-5.594765625E0,-6.950047302E-1,8.708434395E0
1.198082717E1,-6.488556976E0,-5.635780334E0,-5.676196289E-1,8.613105343E0
1.199079817E1,-6.360722809E0,-5.741610260E0,-5.010081482E-1,8.583466211E0
1.200076817E1,-6.113287354E0,-5.798791351E0,-3.905378723E-1,8.435092367E0
1.201073817E1,-5.880671082E0,-5.865851898E0,-2.802172852E-1,8.310778098E0
1.202070917E1,-5.630391541E0,-5.922883301E0,-2.130070496E-1,8.174792199E0
1.203067917E1,-5.316643982E0,-6.046526184E0,-3.035687256E-1,8.057253632E0
1.204064917E1,-4.983736267E0,-6.118676147E0,-3.478765869E-1,7.899167241E0
1.205062017E1,-4.712051239E0,-6.101911011E0,-2.130070496E-1,7.712465032E0
1.206059017E1,-4.428391113E0,-6.051316223E0,-7.214996338E-2,7.498952027E0
1.207056017E1,-4.201013947E0,-5.975873108E0,9.744735718E-2,7.305413990E0
1.208053017E1,-4.089196472E0,-5.889203339E0,2.544708252E-1,7.174189791E0
1.209050117E1,-4.130510559E0,-5.826334076E0,3.799099731E-1,7.152035922E0
1.210047117E1,-4.300107880E0,-5.829178162E0,5.023553467E-1,7.261033446E0
1.211044117E1,-4.468058624E0,-5.863007812E0,6.071374512E-1,7.396419699E0
1.212041217E1,-4.642296295E0,-5.858068085E0,7.581733704E-1,7.512835912E0
1.213038217E1,-4.817581787E0,-5.824687500E0,9.392967224E-1,7.616978212E0
1.214035217E1,-4.946613464E0,-5.806575165E0,1.086440735E0,7.704910991E0
1.215032317E1,-5.014272766E0,-5.829028473E0,1.200353851E0,7.782117558E0
1.216029317E1,-5.048401794E0,-5.860463104E0,1.269210663E0,7.838512881E0
1.217026317E1,-4.996759186E0,-5.860912170E0,1.278191986E0,7.807154961E0
1.218023417E1,-4.899910583E0,-5.914949799E0,1.242117004E0,7.780656110E0
1.219020417E1,-5.091512146E0,-6.338119812E0,1.049018555E0,8.197298251E0
1.220017417E1,-5.627547455E0,-7.297325134E0,5.713618469E-1,9.232913886E0
1.221014417E1,-6.215075684E0,-8.436755676E0,-2.799179077E-2,1.047887378E1
1.222011517E1,-6.548881531E0,-9.301208038E0,-5.610333252E-1,1.138925277E1
1.223008517E1,-6.444099426E0,-9.817035370E0,-8.473878479E-1,1.177364290E1
1.224005517E1,-6.185287628E0,-9.867630157E0,-8.662486267E-1,1.167811178E1
1.225002617E1,-6.141129456E0,-9.575587463E0,-7.767347717E-1,1.140213415E1
1.225999617E1,-6.190826111E0,-9.250164185E0,-5.135820007E-1,1.114251461E1
1.226996617E1,-6.538403320E0,-9.208999786E0,-2.339634705E-1,1.129650981E1
1.227993717E1,-7.412735138E0,-9.298813019E0,-1.592687988E-1,1.189293624E1
1.228990717E1,-8.576265564E0,-9.374106445E0,-3.245251465E-1,1.270950507E1
1.229987717E1,-9.976753235E0,-9.502988434E0,-7.048841858E-1,1.379634937E1
1.230984717E1,-1.146181503E1,-9.538764038E0,-1.424288177E0,1.497964686E1
1.231981817E1,-1.299926788E1,-9.400601349E0,-2.213596802E0,1.619420520E1
1.232978817E1,-1.402134247E1,-8.959169312E0,-3.158731384E0,1.693642062E1
1.233975817E1,-1.424961777E1,-8.227191467E0,-4.210294647E0,1.698425350E1
1.234972917E1,-1.398945877E1,-7.369026031E0,-5.182073822E0,1.663915234E1
1.235969917E1,-1.359966934E1,-6.698270874E0,-6.005361786E0,1.630589492E1
1.236966917E1,-1.306722656E1,-6.150260468E0,-6.457122345E0,1.582000451E1
1.237964017E1,-1.241114090E1,-5.473817139E0,-6.580465851E0,1.507652557E1
1.238961017E1,-1.181747543E1,-4.766837311E0,-6.285429382E0,1.420852160E1
1.239958017E1,-1.128623016E1,-4.179458771E0,-5.799839172E0,1.335982789E1
1.240955117E1,-1.065768723E1,-3.904630280E0,-5.213658142E0,1.249058309E1
1.241952117E1,-1.002375549E1,-3.887865143E0,-4.548591156E0,1.167393897E1
1.242949117E1,-9.295819244E0,-3.974834290E0,-3.956272888E0,1.085650304E1
1.243946117E1,-8.467292175E0,-4.112996979E0,-3.524271240E0,1.005148092E1
1.244943217E1,-7.678133240E0,-4.183949432E0,-3.173101501E0,9.302028598E0
1.245940217E1,-6.892267456E0,-4.209695892E0,-2.862796783E0,8.568576055E0
1.246937217E1,-6.229296112E0,-4.239034882E0,-2.696642303E0,8.002838652E0
1.247934317E1,-5.748645630E0,-4.243375854E0,-2.523153076E0,7.577563373E0
1.248931317E1,-5.380112000E0,-4.211791534E0,-2.248773651E0,7.193175654E0
1.249928317E1,-5.090164948E0,-4.122876434E0,-1.885030060E0,6.816247326E0
1.250925417E1,-4.845573578E0,-4.059109039E0,-1.538800049E0,6.505678680E0
1.251922417E1,-4.694986725E0,-4.126618652E0,-1.260079651E0,6.376494537E0
1.252919417E1,-4.663851471E0,-4.261039124E0,-9.711804199E-1,6.391490934E0
1.253916417E1,-4.773872681E0,-4.409230957E0,-6.364764404E-1,6.529646259E0
1.254913517E1,-5.062921600E0,-4.603077850E0,-3.496728516E-1,6.851552520E0
1.255910517E1,-5.426814880E0,-4.797972565E0,-7.409591675E-2,7.244056231E0
1.256907517E1,-5.882916412E0,-5.006788330E0,1.025367737E-1,7.725745834E0
1.257904617E1,-6.541247406E0,-5.307363281E0,1.299298096E-1,8.424541791E0
1.258901617E1,-7.236252136E0,-5.608087921E0,-6.810836792E-2,9.155251709E0
1.259898617E1,-7.768096161E0,-5.859415283E0,-4.087998962E-1,9.738746469E0
1.260895717E1,-8.135132904E0,-6.065836029E0,-8.259823608E-1,1.018120823E1
1.261892717E1,-8.579409027E0,-6.276298370E0,-1.237326965E0,1.070182968E1
1.262889717E1,-9.065448303E0,-6.359525299E0,-1.566791840E0,1.118395063E1
1.263886854E1,-9.621392212E0,-6.315217438E0,-1.862726440E0,1.165859808E1
1.264883854E1,-1.029184799E1,-6.212081909E0,-2.049687653E0,1.219480694E1
1.265880854E1,-1.103265747E1,-5.993386688E0,-2.222278748E0,1.275063676E1
1.266877854E1,-1.165117126E1,-5.714366913E0,-2.463876343E0,1.320887837E1
1.267874954E1,-1.223570572E1,-5.396428070E0,-2.646646271E0,1.363226565E1
1.268871954E1,-1.271800278E1,-5.131479034E0,-2.838996277E0,1.400498381E1
1.269868954E1,-1.302725967E1,-4.863236847E0,-3.055895233E0,1.423724211E1
1.270866054E1,-1.322948914E1,-4.739893341E0,-3.265010376E0,1.442727502E1
1.271863054E1,-1.320718552E1,-4.704866180E0,-3.497926025E0,1.444994815E1
1.272860054E1,-1.296379166E1,-4.693190460E0,-3.683540039E0,1.427075324E1
1.273857154E1,-1.260244308E1,-4.701722717E0,-3.836821289E0,1.398745745E1
1.274854154E1,-1.220756424E1,-4.781207428E0,-3.928430786E0,1.368638512E1
1.275851154E1,-1.174517578E1,-4.831502838E0,-3.869004364E0,1.327636127E1
1.276848254E1,-1.129416367E1,-4.771926727E0,-3.688030701E0,1.280355373E1
1.277845254E1,-1.123907822E1,-4.919819183E0,-3.583248596E0,1.278128203E1
1.278842254E1,-1.175849808E1,-5.625900879E0,-3.642225952E0,1.353435804E1
1.279839254E1,-1.220666611E1,-6.714586945E0,-3.616030426E0,1.439319462E1
1.280836354E1,-1.226324844E1,-7.801925812E0,-3.489693146E0,1.494775124E1
1.281833354E1,-1.200024536E1,-8.694669342E0,-3.245999908E0,1.517035527E1
1.282830354E1,-1.150268005E1,-9.275461578E0,-2.874023438E0,1.505343305E1
1.283827454E1,-1.097353043E1,-9.340426483E0,-2.478396149E0,1.462205131E1
1.284824454E1,-1.078507233E1,-9.098529510E0,-2.189197540E0,1.427913198E1
1.285821454E1,-1.114716934E1,-8.732839966E0,-1.921554108E0,1.429035508E1
1.286818554E1,-1.169832321E1,-8.386609955E0,-1.635049896E0,1.448652411E1
1.287815554E1,-1.209544739E1,-8.174051971E0,-1.294208679E0,1.465571388E1
1.288812554E1,-1.244452148E1,-8.217312012E0,-9.913883972E-1,1.494567438E1
1.289809554E1,-1.263118332E1,-8.443491669E0,-7.271878052E-1,1.521079044E1
1.290806654E1,-1.250394791E1,-8.713530121E0,-4.846920776E-1,1.524825389E1
1.291803654E1,-1.197494797E1,-8.987011414E0,-3.764671326E-1,1.497689823E1
1.292800654E1,-1.134595596E1,-9.132808228E0,-3.177891541E-1,1.456845540E1
1.293797754E1,-1.076561279E1,-9.198970642E0,-2.231858826E-1,1.416224882E1
1.294794754E1,-1.020442978E1,-9.172326050E0,-8.816665649E-2,1.372114156E1
1.295791754E1,-9.750124512E0,-9.012608185E0,1.766326904E-2,1.327751280E1
1.296788854E1,-9.483229523E0,-8.780740356E0,1.597178650E-1,1.292511328E1
1.297785854E1,-9.312584381E0,-8.482261047E0,3.445834351E-1,1.260125859E1
1.298782854E1,-9.115144958E0,-8.096513214E0,4.523593140E-1,1.220016487E1
1.299779854E1,-8.810229034E0,-7.638166351E0,4.290078735E-1,1.166815189E1
1.300776954E1,-8.466843109E0,-7.189998322E0,2.594105530E-1,1.111084164E1
1.301773954E1,-8.142916718E0,-6.803052979E0,-3.158432007E-2,1.061082561E1
1.302770954E1,-7.917186127E0,-6.452481995E0,-3.366499329E-1,1.021908476E1
1.303768054E1,-7.733967133E0,-6.133645020E0,-5.676196289E-1,9.887266603E0
1.304765054E1,-7.502847748E0,-5.872288513E0,-8.068222046E-1,9.561770693E0
1.305762054E1,-7.313641205E0,-5.675597534E0,-9.406439209E-1,9.305190274E0
1.306759154E1,-7.107819214E0,-5.562432861E0,-1.090781708E0,9.091290230E0
1.307756154E1,-6.860084381E0,-5.578299866E0,-1.295256500E0,8.936211530E0
1.308753154E1,-6.688241730E0,-5.645959167E0,-1.452729034E0,8.872420978E0
1.309750254E1,-6.612349548E0,-5.722599792E0,-1.482068024E0,8.869489307E0
1.310747254E1,-6.489904175E0,-5.810467072E0,-1.285676422E0,8.805302246E0
1.311744254E1,-6.382577362E0,-5.908363495E0,-1.021775208E0,8.757287111E0
1.312741254E1,-6.315067749E0,-6.028264160E0,-7.846682739E-1,8.765600593E0
1.313738354E1,-6.212530975E0,-6.111790466E0,-5.664221191E-1,8.733290207E0
1.314735354E1,-6.160139923E0,-6.177653503E0,-3.826043701E-1,8.732531866E0
1.315732354E1,-6.003415833E0,-6.208639069E0,-2.818638611E-1,8.641044380E0
1.316729454E1,-5.832321625E0,-6.183641052E0,-2.170486450E-1,8.502970205E0
1.317726454E1,-5.672454071E0,-6.104755096E0,-1.836680603E-1,8.335376652E0
1.318723454E1,-5.514981537E0,-6.050867157E0,-1.860630798E-1,8.189177869E0
1.319720554E1,-5.372777252E0,-5.996979218E0,-2.365081787E-1,8.055211435E0
1.320717554E1,-5.323529663E0,-5.966891785E0,-2.942880249E-1,8.001897968E0
1.321714554E1,-5.306764526E0,-5.949378204E0,-3.248245239E-1,7.978869702E0
1.322711554E1,-5.234165497E0,-5.913752289E0,-3.002755737E-1,7.903108249E0
1.323708654E1,-5.243146820E0,-5.895041199E0,-2.875520325E-1,7.894604834E0
1.324705654E1,-5.214406586E0,-5.886958008E0,-2.737806702E-1,7.869006702E0
1.325702654E1,-5.143603821E0,-5.848637695E0,-2.112107849E-1,7.791523160E0
1.326699754E1,-5.056484985E0,-5.815406799E0,-4.909790039E-2,7.706452313E0
1.327696754E1,-5.074447632E0,-5.730233917E0,1.422042847E-1,7.655443917E0
1.328693754E1,-5.155279541E0,-5.698050842E0,2.621049500E-1,7.688523236E0
1.329690754E1,-5.019960938E0,-5.751489716E0,1.269360352E-1,7.635165651E0
1.330687854E1,-4.754562836E0,-5.873336334E0,-2.887495422E-1,7.562097841E0
1.331684854E1,-4.754862213E0,-6.001020813E0,-7.463479614E-1,7.692723883E0
1.332681854E1,-4.907544708E0,-6.108796692E0,-1.273102570E0,7.938651160E0
1.333678954E1,-5.082830200E0,-6.146817627E0,-1.780247955E0,8.172381083E0
1.334675954E1,-5.133275299E0,-6.057752838E0,-2.020498352E0,8.193247118E0
1.335672954E1,-5.247338104E0,-5.947881317E0,-2.004032593E0,8.180953244E0
1.336670054E1,-5.811814270E0,-6.104605408E0,-1.969903564E0,8.655860000E0
1.337667054E1,-6.816075897E0,-6.731501770E0,-2.180066528E0,9.824698305E0
1.338664054E1,-7.808661804E0,-7.666307831E0,-2.498454437E0,1.122451556E1
1.339661154E1,-8.216862946E0,-8.415200500E0,-2.657124481E0,1.205789147E1
1.340658154E1,-7.873027954E0,-8.660989380E0,-2.582878876E0,1.198618244E1
1.341655154E1,-7.449708252E0,-8.724607086E0,-2.528541870E0,1.174778472E1
1.342652154E1,-6.918313293E0,-8.552015991E0,-2.335443420E0,1.124519152E1
1.343649254E1,-6.464008026E0,-8.083639984E0,-2.010319519E0,1.054371944E1
1.344646254E1,-6.275250549E0,-7.498806152E0,-1.645677795E0,9.915599759E0
1.345643254E1,-6.627917175E0,-7.037166138E0,-1.356479187E0,9.761712407E0
1.346640354E1,-7.569459229E0,-6.816075897E0,-1.028361511E0,1.023782843E1
1.347637354E1,-8.539591827E0,-6.711443481E0,-7.412585449E-1,1.088657735E1
1.348634354E1,-9.346114655E0,-6.705904999E0,-5.270539856E-1,1.151506869E1
1.349631454E1,-9.996362457E0,-6.829996948E0,-2.746788025E-1,1.210997808E1
1.350628454E1,-1.048599426E1,-6.931934967E0,-2.281256104E-1,1.257218515E1
1.351625454E1,-1.067609894E1,-6.924300842E0,-3.350033569E-1,1.272938561E1
1.352622454E1,-1.080677719E1,-7.010820923E0,-6.333329773E-1,1.289725374E1
1.353619554E1,-1.085213287E1,-7.127578125E0,-1.067430267E0,1.302730076E1
1.354616554E1,-1.062295944E1,-6.998995514E0,-1.449585571E0,1.280369102E1
1.355613554E1,-1.017823425E1,-6.615792389E0,-1.794917450E0,1.227138501E1
1.356610654E1,-9.737850037E0,-6.058052216E0,-2.139351196E0,1.166629948E1
1.357607654E1,-9.299711151E0,-5.397625580E0,-2.377955017E0,1.101243204E1
1.358604654E1,-8.905431061E0,-4.758754120E0,-2.543211365E0,1.041251013E1
1.359601754E1,-8.606802063E0,-4.256997528E0,-2.727927246E0,9.982016668E0
1.360598754E1,-8.376431122E0,-3.835474091E0,-2.872975616E0,9.650360031E0
1.361595754E1,-8.210276642E0,-3.550915833E0,-2.949915619E0,9.419110783E0
1.362592754E1,-7.944429474E0,-3.394042053E0,-3.007994843E0,9.147760059E0
1.363589804E1,-7.693401489E0,-3.348237305E0,-3.012635193E0,8.914880276E0
1.364586804E1,-7.456144867E0,-3.337459717E0,-2.944526825E0,8.683488461E0
1.365583804E1,-7.223678284E0,-3.375780029E0,-2.824027405E0,8.458874011E0
1.366580904E1,-7.004683685E0,-3.488345947E0,-2.733316040E0,8.288858037E0
1.367577904E1,-6.762487335E0,-3.680546265E0,-2.656525726E0,8.144616915E0
1.368574904E1,-6.505920868E0,-3.952380981E0,-2.536924438E0,8.023983261E0
1.369572004E1,-6.393055573E0,-4.224365387E0,-2.362537079E0,8.018603614E0
1.370569004E1,-6.425088959E0,-4.452790375E0,-2.145488434E0,8.106308091E0
1.371566004E1,-6.598278809E0,-4.656367035E0,-1.872456207E0,8.290062090E0
1.372563004E1,-6.836732941E0,-4.827760620E0,-1.654060364E0,8.531360126E0
1.373560104E1,-7.022047577E0,-4.975653076E0,-1.422940979E0,8.723017639E0
1.374557104E1,-7.271728363E0,-5.134023743E0,-1.232686615E0,8.986420281E0
1.375554104E1,-7.673492889E0,-5.376369781E0,-1.126257935E0,9.436964665E0
1.376551204E1,-8.123606873E0,-5.648653564E0,-1.076710968E0,9.952868040E0
1.377548204E1,-8.532257080E0,-5.855673065E0,-1.100810852E0,1.040673352E1
1.378545204E1,-8.833879852E0,-5.969286804E0,-1.137933655E0,1.072215982E1
1.379542304E1,-9.209598541E0,-6.013744354E0,-1.263672180E0,1.107152626E1
1.380539304E1,-9.585766296E0,-5.912105713E0,-1.477727051E0,1.135885499E1
1.381536304E1,-9.878108368E0,-5.694608002E0,-1.695524139E0,1.152737556E1
1.382533304E1,-1.015832565E1,-5.392087097E0,-1.928739166E0,1.166131288E1
1.383530404E1,-1.044408142E1,-5.076243896E0,-2.148332520E0,1.180942088E1
1.384527404E1,-1.065259781E1,-4.808301086E0,-2.415227509E0,1.193444273E1
1.385524404E1,-1.082264420E1,-4.553081818E0,-2.627037048E0,1.203168754E1
1.386521504E1,-1.094568832E1,-4.446503448E0,-2.755020905E0,1.213134889E1
1.387518504E1,-1.099583405E1,-4.538711700E0,-2.927312622E0,1.225060935E1
1.388515504E1,-1.099463654E1,-4.743934937E0,-3.088377686E0,1.236628594E1
1.389512604E1,-1.102861588E1,-5.065466309E0,-3.255130920E0,1.256523754E1
1.390509604E1,-1.110495712E1,-5.486540680E0,-3.438649292E0,1.285482440E1
1.391506604E1,-1.107591751E1,-5.810167694E0,-3.429817657E0,1.296910354E1
1.392503604E1,-1.093790451E1,-5.931415558E0,-3.347339172E0,1.288503493E1
1.393500704E1,-1.084060684E1,-5.916296997E0,-3.154989166E0,1.274657929E1
1.394497704E1,-1.077115128E1,-5.820945282E0,-2.875670013E0,1.257658864E1
1.395494704E1,-1.093820389E1,-5.856122131E0,-2.661016388E0,1.268934509E1
1.396491804E1,-1.143292511E1,-6.377487946E0,-2.542762299E0,1.333603274E1
1.397488804E1,-1.193153824E1,-7.324867859E0,-2.459235992E0,1.421489133E1
1.398485804E1,-1.216639984E1,-8.204588470E0,-2.286495209E0,1.485141803E1
1.399482904E1,-1.222238342E1,-8.886570282E0,-2.029779053E0,1.524722240E1
1.400479904E1,-1.220412140E1,-9.349856873E0,-1.806892548E0,1.547983409E1
1.401476904E1,-1.222103622E1,-9.567354584E0,-1.601369934E0,1.560296080E1
1.402473904E1,-1.231923203E1,-9.449848938E0,-1.403481445E0,1.558951195E1
1.403471004E1,-1.254256760E1,-9.017098846E0,-1.287173309E0,1.550099638E1
1.404468004E1,-1.277668076E1,-8.479566650E0,-1.124611359E0,1.537567470E1
1.405465004E1,-1.296933014E1,-7.979007568E0,-8.232879639E-1,1.524945537E1
1.406462104E1,-1.303025345E1,-7.518265686E0,-5.372328186E-1,1.505325357E1
1.407459104E1,-1.291529251E1,-7.134314117E0,-3.209326172E-1,1.475825926E1
1.408456104E1,-1.263058456E1,-6.881489868E0,-1.853146362E-1,1.438474577E1
1.409453204E1,-1.225456650E1,-6.725963287E0,-2.537223816E-1,1.398132173E1
1.410450204E1,-1.186851929E1,-6.719526672E0,-5.918692017E-1,1.365152365E1
1.411447204E1,-1.163290924E1,-6.810238037E0,-1.168619843E0,1.353032120E1
1.412444204E1,-1.126272903E1,-6.844965820E0,-1.720671844E0,1.329147599E1
1.413441304E1,-1.067145859E1,-6.806944885E0,-2.261946259E0,1.285810748E1
1.414438304E1,-1.025502457E1,-6.823260956E0,-2.849175110E0,1.264279311E1
1.415435304E1,-9.842033386E0,-6.792574768E0,-3.248394928E0,1.239180224E1
1.416432404E1,-9.517957306E0,-6.619983673E0,-3.379222870E0,1.207620977E1
1.417429404E1,-9.316925354E0,-6.414910126E0,-3.232827301E0,1.176466499E1
1.418426404E1,-9.211394806E0,-6.212381287E0,-2.931653595E0,1.149078188E1
1.419423404E1,-9.229357452E0,-6.049070892E0,-2.534529419E0,1.132237329E1
1.420420504E1,-9.230854340E0,-6.012247467E0,-2.086660767E0,1.121204462E1
1.421417504E1,-9.107061768E0,-5.967490540E0,-1.623523865E0,1.100842165E1
1.422414504E1,-8.874744873E0,-6.005212097E0,-1.366208954E0,1.080232363E1
1.423411604E1,-8.637039185E0,-6.130950623E0,-1.303040314E0,1.067168756E1
1.424408604E1,-8.403225403E0,-6.351741486E0,-1.288670197E0,1.061223294E1
1.425405604E1,-8.055797882E0,-6.497687988E0,-1.156045990E0,1.041404201E1
1.426402704E1,-7.823181610E0,-6.628216553E0,-9.879455566E-1,1.030104177E1
1.427399704E1,-7.619455261E0,-6.872957611E0,-8.629554749E-1,1.029749178E1
1.428396704E1,-7.317383423E0,-7.128326569E0,-7.999365234E-1,1.024680625E1
1.429393704E1,-6.966513062E0,-7.351662140E0,-6.782395935E-1,1.015082506E1
1.430390804E1,-6.655160522E0,-7.429200897E0,-3.381468201E-1,9.979906353E0
1.431387804E1,-6.484665070E0,-7.426057434E0,-1.314266968E-1,9.859740517E0
1.432384804E1,-6.453829193E0,-7.444768524E0,-7.993377686E-2,9.853064449E0
1.433381904E1,-6.492897949E0,-7.418123932E0,1.257385254E-2,9.858318546E0
1.434378904E1,-6.476581879E0,-7.381300507E0,1.019380188E-1,9.820392118E0
1.435375904E1,-6.383774872E0,-7.381749573E0,1.395098877E-1,9.760239309E0
1.436373004E1,-6.287225647E0,-7.328161011E0,1.528321838E-1,9.656837361E0
1.437370004E1,-6.143075409E0,-7.254963226E0,1.380130005E-1,9.507413659E0
1.438367004E1,-5.899531860E0,-7.151228943E0,7.334747314E-2,9.270918585E0
1.439364004E1,-5.529800720E0,-6.985822906E0,4.939727783E-3,8.909570253E0
1.440361104E1,-5.256768494E0,-6.786736908E0,-7.439529419E-2,8.584809113E0
1.441358104E1,-4.999453583E0,-6.605613556E0,-1.375639343E-1,8.285384144E0
1.442355104E1,-4.666396179E0,-6.488107910E0,-3.091072083E-1,7.997896275E0
1.443352204E1,-4.435426483E0,-6.486311646E0,-5.664221191E-1,7.878202896E0
1.444349204E1,-4.297413483E0,-6.545588379E0,-7.379653931E-1,7.864927386E0
1.445346204E1,-4.248016205E0,-6.643335114E0,-7.559280396E-1,7.921551004E0
1.446343304E1,-4.136498108E0,-6.733896790E0,-6.539900208E-1,7.929923424E0
1.447340304E1,-3.952830048E0,-6.666686554E0,-4.284091187E-1,7.762287637E0
1.448337304E1,-3.780388641E0,-6.503226471E0,-1.743873596E-1,7.524207850E0
1.449334304E1,-3.673361206E0,-6.352789307E0,-8.981323242E-4,7.338359172E0
1.450331404E1,-3.711531830E0,-6.363866272E0,2.514770508E-2,7.367149711E0
1.451328404E1,-3.772455139E0,-6.518345032E0,-8.816665649E-2,7.531800123E0
1.452325404E1,-3.661086731E0,-6.831793213E0,-2.610571289E-1,7.755327548E0
1.453322504E1,-3.354973297E0,-7.140601044E0,-2.871029663E-1,7.894710711E0
1.454319504E1,-3.082539825E0,-7.323071594E0,-2.261796570E-1,7.948621678E0
1.455316504E1,-2.828967133E0,-7.548053741E0,-2.692900085E-1,8.065276649E0
1.456313504E1,-2.712509308E0,-7.991880798E0,-4.601431274E-1,8.452194812E0
1.457310604E1,-3.002007294E0,-8.847950592E0,-7.514373779E-1,9.373523116E0
1.458307604E1,-3.465443573E0,-9.757159882E0,-1.174457703E0,1.042069187E1
1.459304604E1,-4.046684875E0,-1.043270508E1,-1.658551025E0,1.131228470E1
1.460301704E1,-4.716541901E0,-1.086306015E1,-2.065404968E0,1.202155319E1
1.461298704E1,-5.588628387E0,-1.106020020E1,-2.207010498E0,1.258696512E1
1.462295704E1,-6.570137329E0,-1.101888611E1,-2.053429871E0,1.299227193E1
1.463292842E1,-7.543712769E0,-1.082054855E1,-1.780996399E0,1.331029006E1
1.464289842E1,-8.422235870E0,-1.067969147E1,-1.371448059E0,1.367006718E1
1.465286842E1,-8.966054993E0,-1.046399002E1,-8.800199890E-1,1.380795656E1
1.466283842E1,-9.532477112E0,-1.023376877E1,-5.179229736E-1,1.399522730E1
1.467280942E1,-1.024095383E1,-1.019395157E1,-4.754113770E-1,1.445751707E1
1.468277942E1,-1.106858276E1,-1.032702484E1,-8.042774963E-1,1.515941387E1
1.469274942E1,-1.198048645E1,-1.043824356E1,-1.370549927E0,1.594889938E1
1.470272042E1,-1.245140717E1,-1.028960266E1,-2.167941742E0,1.629765120E1
1.471269042E1,-1.251337830E1,-9.852661285E0,-3.082090759E0,1.622217169E1
1.472266042E1,-1.244317429E1,-9.168733521E0,-3.908821564E0,1.594293407E1
1.473263142E1,-1.236788086E1,-8.387508087E0,-4.601131897E0,1.563602199E1
1.474260142E1,-1.223735229E1,-7.607480164E0,-5.076692963E0,1.527741330E1
1.475257142E1,-1.190219925E1,-6.913822632E0,-5.270539856E0,1.473912754E1
1.476254142E1,-1.130778534E1,-6.308481445E0,-5.080584869E0,1.390953953E1
1.477251242E1,-1.057071808E1,-5.966891785E0,-4.557572479E0,1.296593017E1
1.478248242E1,-9.875413971E0,-5.935457153E0,-3.755240936E0,1.211838633E1
1.479245242E1,-9.250313873E0,-6.001020813E0,-2.969674530E0,1.141926111E1
1.480242342E1,-8.664132843E0,-5.998176727E0,-2.362836456E0,1.079945916E1
1.481239342E1,-8.006849670E0,-5.878126373E0,-2.014211426E0,1.013504114E1
1.482236342E1,-7.089856567E0,-5.664370880E0,-1.933978271E0,9.278547061E0
1.483233342E1,-6.387666779E0,-5.437143402E0,-2.038311310E0,8.632469418E0
1.484230442E1,-6.082002411E0,-5.285808105E0,-2.304457855E0,8.380993179E0
1.485227442E1,-5.976322174E0,-5.126838684E0,-2.481689301E0,8.255887802E0
1.486224442E1,-5.866450653E0,-4.906197510E0,-2.422412567E0,8.022100717E0
1.487221542E1,-5.715564423E0,-4.633913727E0,-2.174078979E0,7.672512790E0
1.488218542E1,-5.586083679E0,-4.510121155E0,-1.855840759E0,7.415501913E0
1.489215542E1,-5.479505310E0,-4.594545593E0,-1.711241455E0,7.352766484E0
1.490212642E1,-5.270988922E0,-4.815336456E0,-1.832040253E0,7.370696093E0
1.491209642E1,-4.989723816E0,-5.097948761E0,-2.106719055E0,7.438056904E0
1.492206642E1,-4.908742218E0,-5.424868927E0,-2.466570740E0,7.720681592E0
1.493203642E1,-5.205275574E0,-5.817053375E0,-2.734363861E0,8.271018649E0
1.494200742E1,-5.835764465E0,-6.074967041E0,-2.793939972E0,8.875104056E0
1.495197742E1,-6.585854645E0,-6.210734711E0,-2.564766541E0,9.408758391E0
1.496194742E1,-7.398365021E0,-6.334078217E0,-2.236199799E0,9.992844509E0
1.497191842E1,-8.114326172E0,-6.465804291E0,-1.961071930E0,1.055910590E1
1.498188842E1,-9.034313049E0,-6.568790131E0,-1.858385468E0,1.132348942E1
1.499185842E1,-9.813293152E0,-6.668632507E0,-1.975292358E0,1.202801571E1
1.500182842E1,-1.032358200E1,-6.613247681E0,-2.207908630E0,1.245737736E1
1.501179942E1,-1.070079758E1,-6.496490479E0,-2.596799927E0,1.278494533E1
1.502176942E1,-1.107606720E1,-6.406228180E0,-3.119512939E0,1.317005638E1
1.503173942E1,-1.141915375E1,-6.331533508E0,-3.547023926E0,1.353021684E1
1.504171042E1,-1.159653488E1,-6.311475220E0,-3.841311951E0,1.375027339E1
1.505168042E1,-1.162377823E1,-6.271358643E0,-4.019740906E0,1.380581314E1
1.506165042E1,-1.145897095E1,-6.208788757E0,-4.174668732E0,1.368520851E1
1.507162042E1,-1.113669113E1,-6.181096344E0,-4.199666748E0,1.341152647E1
1.508159142E1,-1.088162155E1,-6.220464478E0,-4.164190521E0,1.320773821E1
1.509156142E1,-1.058927948E1,-6.364764404E0,-4.136348419E0,1.302890802E1
1.510153142E1,-1.032013916E1,-6.560856628E0,-4.085603943E0,1.289349726E1
1.511150242E1,-1.014380585E1,-6.891219635E0,-4.087100830E0,1.292633352E1
1.512147242E1,-1.003677841E1,-7.329957275E0,-4.136647797E0,1.309874229E1
1.513144242E1,-9.790390778E0,-7.579039307E0,-4.058061218E0,1.302925359E1
1.514141342E1,-9.379794617E0,-7.536378021E0,-3.876788177E0,1.264148042E1
1.515138342E1,-8.979227600E0,-7.469766541E0,-3.732039185E0,1.226181295E1
1.516135342E1,-8.842112732E0,-7.436086578E0,-3.649560699E0,1.211600736E1
1.517132342E1,-9.045390015E0,-7.599696350E0,-3.714824982E0,1.238444144E1
1.518129442E1,-9.407786407E0,-8.139623566E0,-3.824995880E0,1.301501096E1
1.519126442E1,-1.000474503E1,-9.124725037E0,-3.957021332E0,1.410721616E1
1.520123442E1,-1.025442581E1,-1.010368927E1,-3.939956818E0,1.492518158E1
1.521120542E1,-1.001357666E1,-1.070049820E1,-3.824995880E0,1.514605469E1
1.522117542E1,-9.767189026E0,-1.102861588E1,-3.697161713E0,1.518872458E1
1.523114542E1,-9.614955597E0,-1.108474915E1,-3.513793030E0,1.508859756E1
1.524111542E1,-9.564959564E0,-1.092742630E1,-3.265309753E0,1.488486966E1
1.525108642E1,-9.765991516E0,-1.071861053E1,-2.968776398E0,1.480124439E1
1.526105642E1,-1.015129028E1,-1.069780380E1,-2.576142883E0,1.497091222E1
1.527102642E1,-1.059915894E1,-1.097263229E1,-2.242636414E0,1.541980051E1
1.528099742E1,-1.094359268E1,-1.141166931E1,-1.965412903E0,1.593271054E1
1.529096742E1,-1.098041611E1,-1.188303909E1,-1.743574219E0,1.627317446E1
1.530093742E1,-1.075378738E1,-1.229692841E1,-1.569635925E0,1.641103739E1
1.531090842E1,-1.046878006E1,-1.275153305E1,-1.316961365E0,1.655087123E1
1.532087842E1,-1.018916153E1,-1.315823730E1,-8.527766418E-1,1.666389659E1
1.533084842E1,-9.860594788E0,-1.328622116E1,-2.395019531E-3,1.654554345E1
1.534081842E1,-9.391021271E0,-1.305120987E1,9.996212769E-1,1.610976729E1
1.535078942E1,-8.891060944E0,-1.253523285E1,1.888622589E0,1.548386007E1
1.536075942E1,-8.414302368E0,-1.183064804E1,2.556084595E0,1.474104087E1
1.537072942E1,-7.875123596E0,-1.098086517E1,2.983146515E0,1.383821284E1
1.538070042E1,-7.420968018E0,-1.024664200E1,2.977608032E0,1.299733004E1
1.539067042E1,-6.968908081E0,-9.557624817E0,2.617906036E0,1.211475563E1
1.540064042E1,-6.337071991E0,-8.979077911E0,1.829196167E0,1.114128719E1
1.541061042E1,-5.724246368E0,-8.508306885E0,8.521778870E-1,1.029001893E1
1.542058142E1,-5.494324493E0,-8.057594147E0,-1.796264648E-2,9.752576466E0
1.543055142E1,-5.556744690E0,-7.553442535E0,-6.611750793E-1,9.400481805E0
1.544052142E1,-5.632187805E0,-7.127129059E0,-1.094823303E0,9.149652789E0
1.545049242E1,-5.677244110E0,-6.740034027E0,-1.356030121E0,8.916163809E0
1.546046242E1,-5.716312866E0,-6.360872498E0,-1.397942963E0,8.665516502E0
1.547043242E1,-5.692512360E0,-6.069278870E0,-1.420845337E0,8.441542776E0
1.548040342E1,-5.753735046E0,-5.834716644E0,-1.396745453E0,8.312658008E0
1.549037342E1,-5.754333801E0,-5.660928040E0,-1.257984009E0,8.169515746E0
1.550034342E1,-5.658533020E0,-5.516628113E0,-1.033600616E0,7.969975653E0
1.551031342E1,-5.581892395E0,-5.398224335E0,-8.955876160E-1,7.816676139E0
1.552028442E1,-5.530399475E0,-5.413791962E0,-8.039781189E-1,7.780799610E0
1.553025442E1,-5.412145386E0,-5.416486359E0,-7.487429810E-1,7.693520534E0
1.554022442E1,-5.256319427E0,-5.436844025E0,-7.728428650E-1,7.601674353E0
1.555019542E1,-5.013823700E0,-5.436394958E0,-8.617579651E-1,7.445498306E0
1.556016542E1,-4.770579529E0,-5.406756592E0,-1.021176453E0,7.282461619E0
1.557013542E1,-4.657714233E0,-5.361700287E0,-1.180145874E0,7.199644167E0
1.558010542E1,-4.574487305E0,-5.289400635E0,-1.261277161E0,7.105949145E0
1.559007642E1,-4.470303955E0,-5.177583160E0,-1.289119263E0,6.960805507E0
1.560004642E1,-4.450245667E0,-5.137017517E0,-1.238823853E0,6.908568593E0
1.561001642E1,-4.404889984E0,-5.136418762E0,-1.128503265E0,6.859983462E0
1.561998742E1,-4.215982819E0,-5.094206543E0,-9.006770325E-1,6.673580040E0
1.562995742E1,-4.013154602E0,-5.039570160E0,-5.846841431E-1,6.468735023E0
1.563992779E1,-3.834575958E0,-5.028792572E0,-2.465373230E-1,6.328784098E0
1.564989779E1,-3.736829224E0,-5.012177124E0,8.592132568E-2,6.252455089E0
1.565986879E1,-3.779191132E0,-4.998256073E0,3.779640198E-1,6.277555749E0
1.566983879E1,-3.731889496E0,-5.151387634E0,4.421804810E-1,6.376465898E0
1.567980879E1,-3.625460815E0,-5.346132660E0,2.758763123E-1,6.465385393E0
1.568977979E1,-3.494632874E0,-5.649701385E0,-1.004411316E-1,6.643920009E0
1.569974979E1,-3.307372284E0,-6.045628052E0,-6.135740662E-1,6.918439354E0
1.570971979E1,-3.146905975E0,-6.479425964E0,-1.192420349E0,7.301222112E0
1.571969079E1,-3.015628967E0,-6.838828583E0,-1.711391144E0,7.667623758E0
1.572966079E1,-2.913391571E0,-7.016509094E0,-1.856439514E0,7.820845094E0
1.573963079E1,-2.956950989E0,-6.991660767E0,-1.841620331E0,7.811430398E0
1.574960079E1,-3.413950653E0,-6.843019867E0,-1.721420288E0,7.838703194E0
1.575957179E1,-4.076921997E0,-6.657106476E0,-1.532064056E0,7.955223433E0
1.576954179E1,-4.897066498E0,-6.499933319E0,-1.403032379E0,8.258262123E0
1.577951179E1,-5.980812836E0,-6.555916901E0,-1.456022186E0,8.992784285E0
1.578948279E1,-7.312593384E0,-6.942413177E0,-1.665736084E0,1.021987277E1
1.579945279E1,-8.594228210E0,-7.542365570E0,-1.974394226E0,1.160371792E1
1.580942279E1,-9.489217072E0,-8.123906250E0,-2.116448822E0,1.266974542E1
1.581939279E1,-9.995464325E0,-8.607550507E0,-2.148482208E0,1.336470009E1
1.582936379E1,-1.015623001E1,-8.989705811E0,-2.044149170E0,1.371649971E1
1.583933379E1,-1.021670425E1,-9.280251617E0,-1.791474609E0,1.391809963E1
1.584930379E1,-1.016386414E1,-9.561516724E0,-1.437161407E0,1.402826323E1
1.585927479E1,-1.006731491E1,-9.820627899E0,-1.009500732E0,1.410016502E1
1.586924479E1,-1.019440063E1,-9.965975647E0,-4.975653076E-1,1.426513393E1
1.587921479E1,-1.048255142E1,-9.741143188E0,7.574249268E-2,1.431011851E1
1.588918479E1,-1.097263229E1,-9.350006561E0,5.028044128E-1,1.442477364E1
1.589915579E1,-1.154204819E1,-8.953331451E0,6.298901367E-1,1.462114161E1
1.590912579E1,-1.190339676E1,-8.439450073E0,5.378315735E-1,1.460152166E1
1.591909579E1,-1.203167999E1,-7.833659821E0,2.089654541E-1,1.435866345E1
1.592906679E1,-1.203617065E1,-7.312144318E0,-1.981878662E-1,1.408460638E1
1.593903679E1,-1.209260330E1,-6.933431854E0,-5.295986938E-1,1.394933714E1
1.594900679E1,-1.214888626E1,-6.593189392E0,-7.089257812E-1,1.384081499E1
1.595897679E1,-1.242251724E1,-6.415957947E0,-7.655081177E-1,1.400248027E1
1.596894779E1,-1.239452545E1,-6.229146423E0,-6.872209167E-1,1.388880121E1
1.597891779E1,-1.196461945E1,-5.995632019E0,-5.421725464E-1,1.339379233E1
1.598888779E1,-1.153950348E1,-5.932463379E0,-4.664300537E-1,1.298352107E1
1.599885879E1,-1.101634140E1,-6.052214355E0,-4.971162415E-1,1.257919715E1
1.600882879E1,-1.043929138E1,-6.192622375E0,-6.879693604E-1,1.215733023E1
1.601879879E1,-9.894274750E0,-6.313421173E0,-1.048569489E0,1.178369457E1
1.602876979E1,-9.335636444E0,-6.307134247E0,-1.409319305E0,1.135430452E1
1.603873979E1,-8.868008881E0,-6.241420898E0,-1.726360016E0,1.098076661E1
1.604870979E1,-8.468489685E0,-6.062842255E0,-2.010768585E0,1.060738253E1
1.605867979E1,-8.087232513E0,-5.698050842E0,-2.222877502E0,1.013963991E1
1.606865079E1,-7.905360718E0,-5.319787445E0,-2.334395599E0,9.810416370E0
1.607862079E1,-7.975714417E0,-4.965174866E0,-2.327958984E0,9.679068908E0
1.608859079E1,-8.146808624E0,-4.663103027E0,-2.244133301E0,9.651484594E0
1.609856179E1,-8.286468201E0,-4.343667297E0,-2.119891663E0,9.593067366E0
1.610853179E1,-8.321645050E0,-4.068389740E0,-1.873953094E0,9.450569910E0
1.611850179E1,-8.348439331E0,-3.846401367E0,-1.606908417E0,9.331312737E0
1.612847179E1,-8.420738983E0,-3.686683502E0,-1.398841095E0,9.298238364E0
1.613844279E1,-8.582253113E0,-3.651057587E0,-1.285227356E0,9.414727789E0
1.614841279E1,-8.837322693E0,-3.785028992E0,-1.201251984E0,9.688535657E0
1.615838279E1,-8.994196472E0,-3.899690552E0,-1.218615875E0,9.878673050E0
1.616835379E1,-8.935219116E0,-3.875291290E0,-1.302291870E0,9.826087083E0
1.617832379E1,-8.757837982E0,-3.781586151E0,-1.482217712E0,9.653863956E0
1.618829379E1,-8.755892029E0,-3.814817047E0,-1.661245422E0,9.694235951E0
1.619826379E1,-8.670270081E0,-3.917054443E0,-1.816023560E0,9.685806128E0
1.620823479E1,-8.633596344E0,-3.932322693E0,-1.832639008E0,9.662334776E0
1.621820479E1,-8.757538605E0,-3.943249969E0,-1.839524689E0,9.778934186E0
1.622817479E1,-8.909622345E0,-4.009861450E0,-1.791624298E0,9.933291338E0
1.623814579E1,-9.049880676E0,-4.060905304E0,-1.752555542E0,1.007287164E1
1.624811579E1,-9.183253326E0,-4.101920013E0,-1.760039978E0,1.021056464E1
1.625808579E1,-9.248517609E0,-4.111500092E0,-1.771715698E0,1.027513929E1
1.626805579E1,-9.251511383E0,-4.058061218E0,-1.789678345E0,1.025969163E1
1.627802679E1,-9.282047882E0,-3.999682617E0,-1.820214844E0,1.026971548E1
1.628799679E1,-9.286239166E0,-3.931424561E0,-1.789977722E0,1.024179463E1
1.629796679E1,-9.272467804E0,-3.891307983E0,-1.791474609E0,1.021422137E1
1.630793779E1,-9.264384613E0,-3.905079346E0,-1.873204651E0,1.022679630E1
1.631790779E1,-9.348509674E0,-3.976331177E0,-1.908231812E0,1.033669151E1
1.632787779E1,-9.422904968E0,-4.088597717E0,-1.974843292E0,1.045981718E1
1.633784779E1,-9.523944855E0,-4.227508850E0,-2.149080963E0,1.063935645E1
