"Time (s)","Acceleration x (m/s^2)","Acceleration y (m/s^2)","Acceleration z (m/s^2)","Absolute acceleration (m/s^2)"
1.473683333E-2,-3.857328644E0,2.903961182E0,6.823560333E0,8.359004153E0
2.470483333E-2,-3.748055878E0,2.102527771E0,7.448959808E0,8.599741166E0
3.467283334E-2,-3.316054230E0,1.678309937E0,7.808362427E0,8.647743271E0
4.464183334E-2,-3.153342590E0,1.066083069E0,7.736212463E0,8.421940743E0
5.460983334E-2,-2.936443634E0,6.286926270E-1,7.595205688E0,8.167319333E0
6.457783333E-2,-2.771037598E0,5.417234802E-1,8.525970154E0,8.981329565E0
7.454683333E-2,-2.046394501E0,1.660047913E-1,1.022673340E1,1.043078923E1
8.451483333E-2,-3.959266663E-1,-9.671388245E-1,1.258897110E1,1.263227251E1
9.448283334E-2,1.237027588E0,-2.064656525E0,1.305510178E1,1.327511681E1
1.044508333E-1,2.008373566E0,-1.700463867E0,1.351913681E1,1.377287921E1
1.144198333E-1,1.794019318E0,-1.097667389E0,1.474838058E1,1.489758735E1
1.243878333E-1,1.490899658E0,-6.093827820E-1,1.535342239E1,1.543767173E1
1.343558333E-1,1.348845062E0,-3.478765869E-1,1.473700424E1,1.480269216E1
1.443248333E-1,1.638193359E0,-1.675016785E-1,1.381731674E1,1.391509886E1
1.542928333E-1,1.934127960E0,9.265731812E-2,1.255663834E1,1.270506209E1
1.642608333E-1,1.154100037E0,1.827699280E-1,9.596394196E0,9.667271244E0
1.742298333E-1,4.558021545E-1,1.377136230E-2,7.450606384E0,7.464548261E0
1.841978333E-1,6.162684631E-1,-6.933581543E-1,6.969057770E0,7.030526193E0
1.941658333E-1,1.012494507E0,-1.496737518E0,6.748266907E0,6.986019938E0
2.041338333E-1,1.166524200E0,-1.677411804E0,6.228547668E0,6.555096882E0
2.141028333E-1,1.271156616E0,-1.142873383E0,6.301895142E0,6.529615692E0
2.240708333E-1,1.376238098E0,-5.463638306E-2,6.758745117E0,6.897655543E0
2.340388333E-1,1.352287903E0,9.636959839E-1,7.175777893E0,7.365404326E0
2.440078333E-1,1.578018494E0,1.064436493E0,8.042475586E0,8.264658551E0
2.539758333E-1,1.649719391E0,1.956581268E0,9.379495239E0,9.722382181E0
2.639438333E-1,3.006198578E0,3.030148773E0,7.687863007E0,8.793308199E0
2.739128333E-1,4.915777588E0,2.780917053E0,5.133424988E0,7.632196345E0
2.838808333E-1,6.174510040E0,2.226769409E0,2.920277252E0,7.184086265E0
2.938488333E-1,5.673801270E0,9.797126770E-1,1.772464142E0,6.024407598E0
3.038168333E-1,4.486170959E0,-3.312611389E-1,7.607180786E-1,4.562253370E0
3.137858333E-1,4.275259552E0,-9.651928711E-1,2.661465454E-1,4.390931052E0
3.237538333E-1,4.683311005E0,-7.547305298E-1,1.817670135E0,5.080053628E0
3.337218333E-1,5.327571259E0,8.217910767E-2,4.179608459E0,6.771919654E0
3.436908333E-1,4.866829376E0,1.197958832E0,6.848109283E0,8.486326313E0
3.536588333E-1,3.914659424E0,1.910028076E0,8.786129150E0,9.806570813E0
3.636268333E-1,3.681594086E0,1.767075348E0,9.067843323E0,9.944972238E0
3.735948333E-1,3.439397736E0,6.839277649E-1,9.691147156E0,1.030609272E1
3.835638333E-1,3.556604004E0,-5.665718079E-1,9.481882324E0,1.014280672E1
3.935318333E-1,3.538491669E0,-1.119521942E0,8.749455414E0,9.504063484E0
4.035007083E-1,3.372786255E0,-1.177152100E0,8.373287659E0,9.103478478E0
4.134697083E-1,3.241359558E0,-5.465135193E-1,7.954757996E0,8.607163504E0
4.234377083E-1,3.425626373E0,4.658312988E-1,7.405699768E0,8.172900581E0
4.334057083E-1,3.319646759E0,7.405101013E-1,6.192472687E0,7.065063892E0
4.433747083E-1,2.817441101E0,1.848655701E-1,5.387746124E0,6.082759073E0
4.533427083E-1,2.236349487E0,-7.044351196E-1,5.193150787E0,5.697920934E0
4.633107083E-1,1.846859436E0,-1.320853271E0,5.392835541E0,5.851343291E0
4.732787083E-1,2.083816681E0,-9.798623657E-1,5.564378815E0,6.022020741E0
4.832477083E-1,3.403921509E0,-2.993774414E-2,5.032385101E0,6.075563983E0
4.932157083E-1,5.409750366E0,8.113128662E-1,4.262835388E0,6.935084220E0
5.031837083E-1,6.769971771E0,1.269809418E0,4.854554901E0,8.426840275E0
5.131527083E-1,6.933282166E0,1.748364258E0,6.479875031E0,9.649661112E0
5.231207083E-1,6.318959656E0,1.611099701E0,6.956932983E0,9.535397732E0
5.330887083E-1,6.148015137E0,1.373394012E0,8.621172180E0,1.067749554E1
5.430567083E-1,7.574249268E0,2.030826874E0,1.415905609E1,1.618556082E1
5.530257083E-1,8.797505493E0,1.537003784E0,1.656500290E1,1.881908086E1
5.629937083E-1,9.031019897E0,1.065484314E0,1.592403580E1,1.833765234E1
5.729617083E-1,9.359586639E0,1.617386627E0,1.595891327E1,1.857161044E1
5.829307083E-1,9.165889435E0,2.418670349E0,1.517110153E1,1.788926541E1
5.928987083E-1,9.075477448E0,2.766846313E0,1.319266571E1,1.625011255E1
6.028667083E-1,9.851912842E0,2.897823944E0,1.291379562E1,1.649920264E1
6.128357083E-1,1.159039764E1,3.012036438E0,1.522319321E1,1.936892595E1
6.228037083E-1,1.413495621E1,2.880010986E0,1.764395920E1,2.279036521E1
6.327717083E-1,1.537003784E1,2.477498016E0,1.929906738E1,2.479576701E1
6.427397083E-1,1.509206589E1,2.598596191E0,2.061572937E1,2.568134444E1
6.527087083E-1,1.448897003E1,2.850821686E0,2.051768326E1,2.527909736E1
6.626767083E-1,1.390383682E1,3.016826477E0,1.871782608E1,2.351116615E1
6.726447083E-1,1.378064301E1,3.035537567E0,1.653386765E1,2.173682105E1
6.826137083E-1,1.354323669E1,2.966531067E0,1.453612198E1,2.008776764E1
6.925817083E-1,1.264660126E1,2.944975891E0,1.269330414E1,1.815845192E1
7.025497083E-1,1.149190247E1,2.966082001E0,1.100960541E1,1.618866505E1
7.125177083E-1,1.019170624E1,2.537822571E0,9.700278168E0,1.429709117E1
7.224867083E-1,9.651329956E0,1.665436707E0,9.340725861E0,1.353406846E1
7.324547083E-1,9.351802826E0,1.229842529E0,1.073507629E1,1.429022714E1
7.424227083E-1,7.703730011E0,6.020480347E-1,1.196446976E1,1.424283871E1
7.523917083E-1,5.805227966E0,9.355545044E-2,1.189351730E1,1.323499823E1
7.623597083E-1,3.783382416E0,3.221301270E-1,1.004321503E1,1.073703490E1
7.723277083E-1,2.578388214E0,8.981323242E-1,6.763684845E0,7.293981090E0
7.822967083E-1,1.991309052E0,1.085392914E0,4.558620300E0,5.091601767E0
7.922647083E-1,8.065228271E-1,7.906558228E-1,2.572550354E0,2.809560646E0
8.022327083E-1,-2.290237427E-1,6.044430542E-1,9.105564880E-1,1.116654109E0
8.122007083E-1,-1.109941864E0,2.101629639E-1,2.844085693E-3,1.129666987E0
8.221697083E-1,-1.703008575E0,-5.516029358E-1,-7.934999084E-1,1.958097575E0
8.321377083E-1,-2.397115173E0,-7.373666382E-1,-1.218166809E0,2.788153706E0
8.421057083E-1,-2.420316925E0,-6.753955078E-1,-1.768123169E0,3.072515688E0
8.520747083E-1,-1.966161346E0,-5.520520020E-1,-2.002086639E0,2.859878103E0
8.620427083E-1,-1.156944122E0,3.141966248E-1,-2.295775909E0,2.589947151E0
8.720107083E-1,-2.893482971E-1,9.145980835E-1,-2.886297913E0,3.041533779E0
8.819787083E-1,-3.727249146E-2,9.006770325E-1,-3.392994232E0,3.510700531E0
8.919477083E-1,1.407073975E-2,9.443861389E-1,-3.472928009E0,3.599068230E0
9.019157083E-1,6.227050781E-2,8.693920898E-1,-3.366199951E0,3.477214738E0
9.118837083E-1,3.905378723E-1,9.048683167E-1,-2.392025757E0,2.587101413E0
9.218527083E-1,9.779164124E-1,5.161267090E-1,-1.510359192E-1,1.116028287E0
9.318207083E-1,1.123862915E0,-2.465373230E-1,1.934876404E0,2.251131982E0
9.417887083E-1,1.281784515E0,-5.156776428E-1,3.740122375E0,3.987155673E0
9.517567083E-1,1.430724792E0,-2.028282166E-1,5.156477051E0,5.355125423E0
9.617257083E-1,1.740430756E0,3.080593872E-1,5.737418976E0,6.003497006E0
9.716937083E-1,2.578088837E0,1.009351044E0,6.338269501E0,6.916573707E0
9.816617083E-1,3.279979248E0,1.578766937E0,8.289461975E0,9.053504777E0
9.916307083E-1,4.838987274E0,1.781595154E0,1.112471603E1,1.226169588E1
1.001598708E0,7.311395874E0,1.955982513E0,1.432865341E1,1.620471184E1
1.011566708E0,8.948391724E0,1.310375061E0,1.675136536E1,1.903678120E1
1.021535708E0,1.051772827E1,1.311273193E-1,1.704774902E1,2.003161374E1
1.031503708E0,1.280197815E1,-8.099656677E-1,1.661634613E1,2.099165662E1
1.041471708E0,1.397838181E1,-9.833052063E-1,1.725102631E1,2.222520991E1
1.051439708E0,1.472188568E1,1.547781372E-1,1.839749222E1,2.356322546E1
1.061408708E0,1.555490341E1,2.192790070E0,2.087963058E1,2.612895562E1
1.071376708E0,1.625873978E1,3.303181000E0,2.515923111E1,3.013709564E1
1.081344708E0,1.736478973E1,3.698059845E0,2.963507355E1,3.454633343E1
1.091313708E0,1.792402679E1,2.949616241E0,3.079186798E1,3.575066582E1
1.101281708E0,1.669627991E1,1.454974365E0,2.804208618E1,3.266865945E1
1.111249708E0,1.468012253E1,5.920188904E-1,2.343002701E1,2.765542712E1
1.121217708E0,1.242072098E1,1.454974365E-1,1.953961716E1,2.315366316E1
1.131186708E0,9.716294861E0,-5.538482666E-3,1.680734894E1,1.941374242E1
1.141154708E0,7.378905487E0,-3.303630066E-1,1.430440384E1,1.609886192E1
1.151122708E0,5.246290283E0,-6.128256226E-1,1.182031952E1,1.294677838E1
1.161091708E0,3.287613373E0,-5.719606018E-1,9.185648346E0,9.773007529E0
1.171059708E0,1.675914917E0,-5.122348022E-1,6.887477417E0,7.106927639E0
1.181027708E0,6.078858948E-1,-4.513114929E-1,4.697232056E0,4.757856272E0
1.190996708E0,2.888992310E-1,4.670288086E-2,2.401905212E0,2.419667864E0
1.200964708E0,-1.719923401E-1,7.644602966E-1,-3.023712158E-1,8.398864580E-1
1.210932708E0,-6.879693604E-1,1.416654053E0,-3.449127502E0,3.791660728E0
1.220900708E0,-1.480720825E0,2.050436096E0,-5.988446960E0,6.500639918E0
1.230869708E0,-2.316582642E0,2.134860535E0,-7.511829071E0,8.145659005E0
1.240837708E0,-2.544109497E0,1.698966980E0,-8.019573212E0,8.583270730E0
1.250805708E0,-2.024539948E0,1.324296112E0,-7.574698334E0,7.951639896E0
1.260774708E0,-1.611249390E0,1.061891785E0,-6.308481445E0,6.597020305E0
1.270742708E0,-1.128503265E0,6.324348450E-1,-4.480183411E0,4.663211002E0
1.280710708E0,-6.126759338E-1,6.930587769E-2,-3.414100342E0,3.469330807E0
1.290678708E0,1.863624573E-1,3.505709839E-1,-2.066452789E0,2.104247635E0
1.300647708E0,6.521937561E-1,8.030799866E-1,-2.408491516E-1,1.062215832E0
1.310615708E0,1.226848755E0,9.003776550E-1,2.075733490E0,2.573811825E0
1.320583708E0,1.795665894E0,1.094224548E0,3.861819305E0,4.397202714E0
1.330552708E0,2.126178589E0,1.537901917E0,4.689148865E0,5.373443474E0
1.340520708E0,2.223625946E0,1.768572235E0,5.455255737E0,6.150786556E0
1.350488708E0,1.966311035E0,1.615889740E0,6.142626343E0,6.649010237E0
1.360457708E0,1.825903015E0,1.322499847E0,6.600075073E0,6.974519241E0
1.370425708E0,1.803150330E0,1.073717194E0,7.033872986E0,7.340271719E0
1.380393708E0,1.585203552E0,7.099736023E-1,7.096891937E0,7.306353946E0
1.390361708E0,1.582658844E0,7.212002563E-1,7.135960693E0,7.344853562E0
1.400330083E0,1.733545074E0,9.623487854E-1,6.901847534E0,7.181002235E0
1.410298083E0,2.263443146E0,1.265468445E0,7.083869019E0,7.543592349E0
1.420266083E0,2.880609741E0,1.654808807E0,7.610773315E0,8.304226341E0
1.430235083E0,3.964954834E0,1.860032043E0,7.079827423E0,8.324934977E0
1.440203083E0,5.510790253E0,1.588047638E0,7.110812988E0,9.135336111E0
1.450171083E0,7.252418518E0,6.056405640E-1,8.694819031E0,1.133861777E1
1.460139083E0,8.867859192E0,-9.907896423E-1,1.010892838E1,1.348373181E1
1.470108083E0,1.036684204E1,-2.446961517E0,1.167527115E1,1.580414474E1
1.480076083E0,1.187690186E1,-3.136278076E0,1.427925613E1,1.883598135E1
1.490044083E0,1.386581589E1,-2.059567108E0,1.665107391E1,2.176604993E1
1.500013083E0,1.615276016E1,5.719606018E-1,2.086047043E1,2.638935441E1
1.509981083E0,1.929307983E1,2.711311798E0,2.712853592E1,3.339957488E1
1.519949083E0,2.126373184E1,3.231031036E0,3.273467789E1,3.916816296E1
1.529917083E0,2.061363373E1,1.920057220E0,3.445370316E1,4.019535018E1
1.539886083E0,1.716241058E1,-2.540217590E-1,3.073872849E1,3.520628201E1
1.549854083E0,1.222732315E1,-1.348246307E0,2.508169235E1,2.793593547E1
1.559822083E0,9.237889709E0,-1.425335999E0,2.081541412E1,2.281779249E1
1.569791083E0,7.551496582E0,-7.948471069E-1,1.810065948E1,1.962882463E1
1.579759083E0,6.492897949E0,4.474195862E-1,1.591984451E1,1.719881849E1
1.589727083E0,5.806874542E0,1.448388062E0,1.350102448E1,1.476804936E1
1.599696083E0,4.993316345E0,2.204016724E0,1.083117645E1,1.212869660E1
1.609664083E0,3.905229034E0,2.733166351E0,8.060288544E0,9.364254563E0
1.619632083E0,2.735561371E0,2.944077759E0,5.476062469E0,6.792506903E0
1.629600083E0,1.238973541E0,2.647394714E0,3.368594971E0,4.459953619E0
1.639569083E0,-2.155517578E-2,2.086960144E0,1.606758728E0,2.633921198E0
1.649537083E0,-1.145567780E0,1.536405029E0,2.200424194E-2,1.916598586E0
1.659505083E0,-2.107018433E0,1.074615326E0,-1.424587555E0,2.761118338E0
1.669474083E0,-2.694846039E0,5.352868652E-1,-2.615211639E0,3.793159517E0
1.679442083E0,-3.042872314E0,-5.643264771E-2,-3.640429688E0,4.744995772E0
1.689410083E0,-2.631827087E0,7.559280396E-2,-4.376000061E0,5.107015236E0
1.699378083E0,-2.014061737E0,3.638932800E-1,-4.543950806E0,4.983608324E0
1.709347083E0,-1.172811127E0,7.283853149E-1,-4.367168427E0,4.580195539E0
1.719315083E0,-6.750961304E-2,1.178948364E0,-3.487447815E0,3.681951800E0
1.729283083E0,7.189549255E-1,1.478176117E0,-2.056273956E0,2.632520351E0
1.739252083E0,1.268312531E0,1.563947754E0,-1.092278595E0,2.290768819E0
1.749220083E0,1.567390594E0,1.571881256E0,-1.092727661E-1,2.222490607E0
1.759188083E0,1.767075348E0,1.481020203E0,1.479373627E0,2.739438346E0
1.769156083E0,1.972597961E0,1.359922028E0,3.208428040E0,4.004315313E0
1.779125083E0,2.242486725E0,1.557062073E0,4.408482513E0,5.185355058E0
1.789093083E0,2.330354004E0,1.805545349E0,5.275479584E0,6.043279625E0
1.799061083E0,1.807042236E0,1.582808533E0,5.424270172E0,5.932401823E0
1.809030083E0,1.221759338E0,1.364861755E0,5.371430054E0,5.675192007E0
1.818998083E0,7.833210754E-1,1.197958832E0,5.334756317E0,5.523433917E0
1.828966083E0,5.974076843E-1,1.086141357E0,5.604196014E0,5.739652599E0
1.838935083E0,4.760101318E-1,8.888516235E-1,6.301745453E0,6.381899295E0
1.848903083E0,8.137078857E-1,9.352551270E-1,7.370672607E0,7.474198108E0
1.858871083E0,1.481618958E0,1.080303497E0,9.472751312E0,9.648588902E0
1.868839083E0,2.727478180E0,9.978250122E-1,1.204036194E1,1.238568156E1
1.878808083E0,4.429588623E0,5.649252319E-1,1.443822556E1,1.511299947E1
1.888776083E0,5.882317657E0,1.347198486E-3,1.542751831E1,1.651090500E1
1.898744083E0,7.164551239E0,-4.240681458E-1,1.494851440E1,1.658218053E1
1.908713083E0,8.690328369E0,-4.791535950E-1,1.490510468E1,1.726017209E1
1.918681083E0,1.022029678E1,3.201841736E-1,1.554008423E1,1.860245151E1
1.928649083E0,1.136751114E1,2.221530304E0,1.710043945E1,2.065382618E1
1.938617083E0,1.287427780E1,3.919449463E0,2.061707657E1,2.462057999E1
1.948586083E0,1.465796860E1,4.246968384E0,2.559811844E1,2.980195382E1
1.958554083E0,1.591295883E1,3.375929718E0,2.962474503E1,3.379711050E1
1.968522083E0,1.510389130E1,1.832339630E0,3.066583008E1,3.423270564E1
1.978491083E0,1.275542496E1,6.036946106E-1,2.880235519E1,3.150620538E1
1.988459083E0,1.027583130E1,2.305206299E-1,2.535532333E1,2.735942744E1
1.998427083E0,8.291856995E0,1.877096558E-1,2.151565796E1,2.305891725E1
2.008396083E0,6.778504028E0,1.812730408E-1,1.800860092E1,1.924293855E1
2.018364083E0,5.495971069E0,4.981640625E-1,1.462563583E1,1.563211723E1
2.028332083E0,4.372557220E0,1.025068359E0,1.178274765E1,1.260964567E1
2.038300083E0,3.455264740E0,1.542691956E0,8.988807678E0,9.752815817E0
2.048269083E0,2.544708252E0,1.698966980E0,5.983058167E0,6.720045678E0
2.058237083E0,1.600022736E0,1.590292969E0,3.450624390E0,4.122609994E0
2.068205083E0,7.457492065E-1,1.448837128E0,1.786684570E0,2.418163075E0
2.078174083E0,-4.191284180E-2,1.386117554E0,4.370910645E-1,1.454003837E0
2.088142083E0,-6.891668701E-1,1.507066040E0,-7.125183105E-1,1.803851814E0
2.098110083E0,-1.049766998E0,1.715881805E0,-1.697919159E0,2.632335577E0
2.108078083E0,-1.360371094E0,2.031575317E0,-2.371219025E0,3.405963512E0
2.118047083E0,-1.798659668E0,2.068099365E0,-2.964884491E0,4.037666607E0
2.128015083E0,-1.800306244E0,2.037413177E0,-3.205434265E0,4.203208757E0
2.137983083E0,-1.379231873E0,2.055076447E0,-2.779719543E0,3.721889372E0
2.147952083E0,-8.178991699E-1,1.967807922E0,-2.279609528E0,3.120552302E0
2.157920083E0,-1.453477478E-1,1.960622864E0,-1.919308777E0,2.747528737E0
2.167888083E0,3.992198181E-1,1.899998932E0,-1.413211212E0,2.401361767E0
2.177857083E0,4.635859680E-1,1.748214569E0,-1.024469604E0,2.078630342E0
2.187825083E0,2.046244812E-1,1.525477753E0,-7.806266785E-1,1.725784333E0
2.197793083E0,9.999206543E-2,1.247356110E0,-3.044668579E-1,1.287864801E0
2.207761083E0,1.353186035E-1,1.045725403E0,9.285191345E-1,1.404991290E0
2.217730083E0,-1.312770081E-1,9.201365662E-1,2.208507385E0,2.396119743E0
2.227698083E0,1.414558411E-1,1.016536102E0,3.416495361E0,3.567323360E0
2.237666083E0,6.894662476E-1,1.267264709E0,4.874762878E0,5.083762059E0
2.247635083E0,8.635542297E-1,1.318009186E0,6.135291595E0,6.334404241E0
2.257603083E0,8.720864868E-1,1.324296112E0,6.380930786E0,6.574996025E0
2.267571083E0,1.157542877E0,1.554966431E0,6.414161682E0,6.700693710E0
2.277539083E0,1.409918060E0,1.739382935E0,6.561904449E0,6.933391085E0
2.287508083E0,1.731299744E0,1.840871887E0,7.026238861E0,7.466876230E0
2.297476083E0,2.343526611E0,1.737137604E0,8.314310303E0,8.811215571E0
2.307444083E0,3.070415039E0,1.077010345E0,9.865235138E0,1.038798653E1
2.317413083E0,3.981570282E0,6.691085815E-2,1.086755081E1,1.157415395E1
2.327381083E0,4.451742554E0,-9.014254761E-1,1.139670044E1,1.226847018E1
2.337349083E0,5.381309509E0,-1.447789307E0,1.206371338E1,1.328863298E1
2.347318083E0,6.694828033E0,-1.403182068E0,1.313189209E1,1.480662798E1
2.357286083E0,8.370593262E0,2.414479065E-1,1.416594177E1,1.645597262E1
2.367254083E0,9.915530548E0,2.762804718E0,1.625739258E1,1.924197623E1
2.377222083E0,1.099748062E1,3.938609619E0,2.042188248E1,2.352680407E1
2.387191083E0,1.247101639E1,4.035308533E0,2.520578430E1,2.841023631E1
2.397159083E0,1.393886398E1,3.763473816E0,2.912897598E1,3.251081214E1
2.407126833E0,1.410007874E1,2.824925537E0,3.038246933E1,3.361378984E1
2.417095833E0,1.244497055E1,1.930685120E0,2.889815598E1,3.152313842E1
2.427063833E0,1.034199371E1,1.352736969E0,2.564077972E1,2.768097390E1
2.437031833E0,8.649762726E0,8.384065247E-1,2.166893921E1,2.334661104E1
2.447000833E0,7.150031433E0,5.114863586E-1,1.778451691E1,1.917481706E1
2.456968833E0,5.940247192E0,2.827619934E-1,1.439466614E1,1.557475214E1
2.466936833E0,4.530179443E0,2.618055725E-1,1.144160706E1,1.230859212E1
2.476904833E0,3.361709290E0,5.607339478E-1,8.670569458E0,9.316345133E0
2.486873833E0,2.888094177E0,6.105802917E-1,6.420747986E0,7.066816891E0
2.496841833E0,2.220183105E0,3.477268982E-1,4.792284393E0,5.293025290E0
2.506809833E0,1.367107086E0,1.002914429E-1,3.774101715E0,4.015331109E0
2.516778833E0,2.865042114E-1,-4.390370178E-1,3.290607147E0,3.332106475E0
2.526746833E0,-1.036594391E0,-9.759704590E-1,2.862198029E0,3.196752074E0
2.536714833E0,-2.414778442E0,-1.295855255E0,2.163151703E0,3.491363782E0
2.546682833E0,-3.472628632E0,-1.572480011E0,1.211131439E0,3.999835292E0
2.556651833E0,-3.729644165E0,-1.632505188E0,4.071533203E-1,4.091588031E0
2.566619833E0,-3.298241272E0,-1.218166809E0,1.905537415E-1,3.521169776E0
2.576587833E0,-2.710713043E0,-5.653742981E-1,1.279838562E-1,2.772001654E0
2.586556833E0,-1.830693054E0,2.215393066E-2,-3.709286499E-1,1.868024603E0
2.596524833E0,-9.490264893E-1,4.882846069E-1,-9.830058289E-1,1.450990556E0
2.606492833E0,-1.862127686E-1,8.650511169E-1,-1.382974091E0,1.641830066E0
2.616461833E0,4.923262024E-1,1.161434784E0,-1.480571136E0,1.945098130E0
2.626429833E0,9.919871521E-1,1.293759613E0,-1.234183502E0,2.044764378E0
2.636397833E0,1.456321564E0,1.535506897E0,-3.065625000E-1,2.138371926E0
2.646365833E0,1.695973206E0,1.645827484E0,1.035247192E0,2.580079450E0
2.656334833E0,1.977687378E0,1.611997833E0,2.000290375E0,3.242058908E0
2.666302833E0,2.119592285E0,1.826801147E0,2.918331299E0,4.043084399E0
2.676270833E0,1.971999207E0,2.019001465E0,3.635040894E0,4.602028909E0
2.686239833E0,2.089355164E0,2.226320343E0,4.285139008E0,5.261589454E0
2.696207833E0,2.606679382E0,2.558030548E0,5.024601288E0,6.211675763E0
2.706175833E0,2.955005035E0,2.937192078E0,6.301595764E0,7.554419980E0
2.716143833E0,3.036435699E0,3.076252899E0,7.720195770E0,8.847863945E0
2.726112833E0,3.216361542E0,2.816692657E0,9.116941223E0,1.006962543E1
2.736080833E0,3.364403687E0,2.093097382E0,1.058059753E1,1.129819955E1
2.746048833E0,3.583997040E0,1.230590973E0,1.209245361E1,1.267228564E1
2.756017833E0,4.432881775E0,7.030879211E-1,1.312410828E1,1.387036378E1
2.765985833E0,5.840105438E0,5.920188904E-1,1.298594559E1,1.425103858E1
2.775953833E0,7.385491791E0,5.230123901E-1,1.283371216E1,1.481631529E1
2.785922833E0,9.236243134E0,-2.727328491E-1,1.326526474E1,1.616631742E1
2.795890833E0,1.114701965E1,-1.773511963E0,1.369606888E1,1.774777999E1
2.805858833E0,1.275692184E1,-3.409909058E0,1.489447678E1,1.990507406E1
2.815826833E0,1.384261414E1,-3.821403351E0,1.681677933E1,2.211391319E1
2.825795833E0,1.486813156E1,-2.559078369E0,1.959335541E1,2.472872407E1
2.835763833E0,1.624047775E1,-1.046024780E0,2.311687820E1,2.827078604E1
2.845731833E0,1.768991364E1,-1.546284485E-1,2.631093613E1,3.170524112E1
2.855700833E0,1.863265320E1,-1.525328064E-1,2.814432358E1,3.375354768E1
2.865668833E0,1.807715836E1,-1.433119812E0,2.784629333E1,3.323031055E1
2.875636833E0,1.612626526E1,-3.020718384E0,2.606769196E1,3.080106710E1
2.885605833E0,1.371837250E1,-3.934717712E0,2.361743729E1,2.759454822E1
2.895573833E0,1.145163620E1,-3.817212067E0,2.077694412E1,2.402899263E1
2.905541833E0,9.250762939E0,-3.015030212E0,1.781086212E1,2.029516769E1
2.915509833E0,7.474706268E0,-2.059267731E0,1.509640686E1,1.697095511E1
2.925478833E0,6.289920044E0,-1.084345093E0,1.334055817E1,1.478882655E1
2.935446833E0,4.760849762E0,-1.817221069E-1,1.160431870E1,1.254427861E1
2.945414833E0,3.186723175E0,4.712200928E-1,9.365723877E0,9.904243369E0
2.955383833E0,1.543889465E0,5.920188904E-1,6.997049561E0,7.189769370E0
2.965351833E0,1.796264648E-2,6.060896301E-1,4.866529999E0,4.904159615E0
2.975319833E0,-1.461261292E0,5.673202515E-1,2.870430908E0,3.270552007E0
2.985288833E0,-2.412383423E0,4.438270569E-1,5.071453857E-1,2.504750023E0
2.995256833E0,-2.797233124E0,4.432283020E-1,-1.847308502E0,3.381347835E0
3.005224833E0,-2.734363861E0,4.864883423E-1,-3.801195374E0,4.707706756E0
3.015192833E0,-2.466720428E0,6.656657410E-1,-5.437442780E0,6.007795314E0
3.025161833E0,-2.011816406E0,1.060095520E0,-6.626120911E0,7.005475436E0
3.035129833E0,-1.305285645E0,1.460961914E0,-6.985822906E0,7.255336106E0
3.045097833E0,-4.670288086E-1,1.557511139E0,-6.631809082E0,6.828239052E0
3.055066833E0,2.754272461E-1,1.535955963E0,-5.187911682E0,5.417513130E0
3.065034833E0,6.740483093E-1,1.376088409E0,-2.952160950E0,3.326141113E0
3.075002833E0,9.419911194E-1,1.015937347E0,-1.318907318E0,1.912849308E0
3.084970833E0,1.070873108E0,5.587879944E-1,-9.595046997E-2,1.211701171E0
3.094939833E0,1.076411591E0,1.944456482E-1,1.298849030E0,1.698081218E0
3.104907833E0,9.804611206E-1,-8.711883545E-2,2.696791992E0,2.870815346E0
3.114875833E0,1.011446686E0,-2.239343262E-1,3.710484009E0,3.852384010E0
3.124844833E0,8.978329468E-1,-2.863545227E-1,4.240831146E0,4.344278044E0
3.134812833E0,7.319778442E-1,-3.420387268E-1,4.501289520E0,4.573225273E0
3.144780833E0,7.408094788E-1,-1.941462708E-1,4.803810425E0,4.864471817E0
3.154749833E0,9.255253601E-1,7.649093628E-2,5.304519196E0,5.385199342E0
3.164717833E0,1.004261627E0,3.059637451E-1,6.064189453E0,6.154392655E0
3.174685833E0,1.151555328E0,4.999603271E-1,6.801556091E0,6.916444554E0
3.184653833E0,1.459015961E0,5.378315735E-1,7.663164368E0,7.819340030E0
3.194622833E0,1.907932434E0,3.779640198E-1,8.612939301E0,8.829823688E0
3.204590833E0,2.588866425E0,3.155438232E-1,1.000070343E1,1.033517617E1
3.214558833E0,3.703748016E0,1.585203552E-1,1.151136200E1,1.209356578E1
3.224527833E0,5.078938293E0,2.502795410E-1,1.241518250E1,1.341622191E1
3.234495833E0,6.298601990E0,6.960525513E-2,1.318787567E1,1.461496824E1
3.244463833E0,8.203390961E0,-2.865042114E-1,1.421219559E1,1.641231889E1
3.254432833E0,1.055664734E1,-7.858657837E-1,1.487905884E1,1.826052518E1
3.264400833E0,1.266441422E1,-2.022294617E0,1.497875153E1,1.971902787E1
3.274368833E0,1.444017151E1,-3.047812042E0,1.415755920E1,2.045101939E1
3.284336833E0,1.542901520E1,-2.200723572E0,1.396535889E1,2.092675185E1
3.294305833E0,1.506916351E1,-3.119512939E-1,1.539638306E1,2.154589552E1
3.304273833E0,1.496782425E1,6.038442993E-1,1.828223190E1,2.363557476E1
3.314241833E0,1.577165268E1,6.586303711E-2,2.259775772E1,2.755735873E1
3.324210833E0,1.577030548E1,-1.195713501E0,2.696178268E1,3.125811881E1
3.334178833E0,1.512394958E1,-2.802921295E0,2.942446152E1,3.320224623E1
3.344146833E0,1.388871826E1,-3.812422028E0,2.903646835E1,3.241215129E1
3.354115833E0,1.198797089E1,-3.904779968E0,2.640494064E1,2.926054755E1
3.364083833E0,1.051263885E1,-3.173849945E0,2.268727158E1,2.520518182E1
3.374051833E0,9.543105011E0,-2.015558624E0,1.887844208E1,2.124920952E1
3.384019833E0,8.219557343E0,-1.147364044E0,1.525537628E1,1.736675193E1
3.393988833E0,6.846612396E0,-6.349795532E-1,1.248209335E1,1.425068261E1
3.403956958E0,5.535189514E0,6.885681152E-3,1.063912582E1,1.199288825E1
3.413924958E0,4.406087494E0,5.728587341E-1,8.976233826E0,1.001571504E1
3.423893958E0,2.990181885E0,6.475534058E-1,6.972500610E0,7.614215513E0
3.433861958E0,1.569037170E0,4.885839844E-1,5.118156738E0,5.375511171E0
3.443829958E0,3.064128113E-1,2.492317200E-1,3.628155212E0,3.649591142E0
3.453798958E0,-9.241781616E-1,-4.311035156E-2,1.893262939E0,2.107227642E0
3.463766958E0,-1.771116943E0,-3.236270142E-1,-1.258882141E-1,1.804837254E0
3.473734958E0,-2.256258087E0,-4.348457336E-1,-2.207609253E0,3.186429033E0
3.483702958E0,-2.525997162E0,-2.850073242E-1,-4.199367371E0,4.908826453E0
3.493671958E0,-2.388133850E0,3.966751099E-2,-5.884113922E0,6.350397897E0
3.503639958E0,-1.780846710E0,4.195774841E-1,-6.845863953E0,7.086135303E0
3.513607958E0,-9.041198730E-1,7.343728638E-1,-7.367080078E0,7.458592704E0
3.523576958E0,-2.357597351E-1,1.039438477E0,-7.092401276E0,7.172040913E0
3.533544958E0,3.550616455E-1,1.246158600E0,-5.821843414E0,5.964297173E0
3.543512958E0,8.484356689E-1,1.353335724E0,-4.041146393E0,4.345368205E0
3.553481958E0,1.311871948E0,1.328038330E0,-2.244133301E0,2.919045749E0
3.563449958E0,1.539398804E0,1.167871399E0,-4.474195862E-1,1.983395212E0
3.573417958E0,1.592238922E0,8.864566040E-1,1.186432800E0,2.174546593E0
3.583385958E0,1.812880096E0,7.333250427E-1,2.801873474E0,3.416839889E0
3.593354958E0,1.880090332E0,8.400531006E-1,4.359983368E0,4.821813335E0
3.603322958E0,1.761536865E0,7.984396362E-1,5.151537323E0,5.502622536E0
3.613290958E0,1.828148346E0,8.351133728E-1,5.006788330E0,5.395133928E0
3.623259958E0,1.864373016E0,1.029559021E0,4.752317505E0,5.207725049E0
3.633227958E0,1.531764679E0,1.038989410E0,4.474794617E0,4.842477557E0
3.643195958E0,1.131197662E0,9.318122864E-1,3.830833740E0,4.101605714E0
3.653164958E0,9.319619751E-1,1.001716919E0,3.709735565E0,3.954001501E0
3.663132958E0,9.595046997E-1,8.774752808E-1,4.503534851E0,4.687476751E0
3.673100958E0,1.188977509E0,6.023474121E-1,5.765111389E0,5.917178318E0
3.683069958E0,1.634750519E0,5.231620789E-1,7.313192139E0,7.511916338E0
3.693037958E0,2.492616577E0,2.856060791E-1,9.319470062E0,9.651281287E0
3.703005958E0,3.889811096E0,-3.104544067E-1,1.181088913E1,1.243881483E1
3.712973958E0,5.960305481E0,-7.433541870E-1,1.363679214E1,1.490100389E1
3.722942958E0,8.127648468E0,-1.262474670E0,1.443119019E1,1.661059186E1
3.732910958E0,9.660910034E0,-1.822011108E0,1.406355469E1,1.715915142E1
3.742878958E0,1.062640228E1,-2.006128235E0,1.304267761E1,1.694273931E1
3.752847958E0,1.163605270E1,-1.411265259E0,1.330283661E1,1.773005510E1
3.762815958E0,1.305345520E1,-9.699829102E-2,1.643043274E1,2.098478547E1
3.772783958E0,1.568647980E1,1.090332642E0,2.255494675E1,2.749509222E1
3.782752958E0,1.914384018E1,1.836081848E0,2.953493179E1,3.524443232E1
3.792720958E0,2.152239395E1,1.146166534E0,3.476191223E1,4.090131637E1
3.802688958E0,2.082379669E1,-1.209035797E0,3.511607574E1,4.084398428E1
3.812656958E0,1.828672256E1,-2.740950165E0,3.112926636E1,3.620701940E1
3.822625958E0,1.553319855E1,-2.578238525E0,2.618429947E1,3.055397044E1
3.832593958E0,1.291798691E1,-1.991458740E0,2.160217804E1,2.524865125E1
3.842561958E0,1.075288925E1,-1.642684021E0,1.805470505E1,2.107831617E1
3.852530958E0,8.535400543E0,-1.553170166E0,1.453791824E1,1.692975094E1
3.862498958E0,6.381679230E0,-1.142124939E0,1.120899078E1,1.294881282E1
3.872466958E0,4.711602173E0,-5.098397827E-1,8.770860901E0,9.969309534E0
3.882435958E0,3.220103760E0,-1.600172424E-1,6.795119476E0,7.521191557E0
3.892403958E0,1.988764343E0,-8.996292114E-2,5.102888489E0,5.477476414E0
3.902371958E0,9.641450500E-1,4.251159668E-2,3.935166779E0,4.051779916E0
3.912339958E0,2.932402039E-1,3.141966248E-1,2.941383362E0,2.972615922E0
3.922308958E0,-1.981878662E-1,6.746470642E-1,1.723815308E0,1.861710586E0
3.932276958E0,-6.727011108E-1,8.755293274E-1,2.026785278E-1,1.122567135E0
3.942244958E0,-1.062191162E0,1.094673615E0,-1.312620392E0,2.012345070E0
3.952213958E0,-1.241967316E0,1.338366852E0,-2.486629028E0,3.084968811E0
3.962181958E0,-1.232237549E0,1.484013977E0,-3.334765320E0,3.852449428E0
3.972149958E0,-1.028511200E0,1.601369934E0,-3.822451172E0,4.270053151E0
3.982118958E0,-7.373666382E-1,1.589245148E0,-4.014651489E0,4.380278105E0
3.992086958E0,-1.472937012E-1,1.639390869E0,-3.704047394E0,4.053302968E0
4.002054958E0,5.051994324E-1,1.694176941E0,-2.843037872E0,3.347883857E0
4.012023958E0,9.226812744E-1,1.650318146E0,-1.805245972E0,2.614154497E0
4.021991958E0,1.214873657E0,1.504671021E0,-9.556127930E-1,2.157115827E0
4.031959958E0,1.507066040E0,1.460662537E0,-1.586700439E-1,2.104746844E0
4.041927958E0,1.831740875E0,1.584754486E0,7.632627869E-1,2.539545530E0
4.051896958E0,1.955234070E0,1.607058105E0,1.695973206E0,3.046621266E0
4.061864958E0,1.714983673E0,1.420845337E0,2.306703186E0,3.206376469E0
4.071832958E0,1.391057281E0,1.240769806E0,2.760858765E0,3.331199662E0
4.081801958E0,1.033151550E0,1.121168518E0,3.136278076E0,3.487213951E0
4.091769958E0,5.870791626E-1,9.117539978E-1,3.382665710E0,3.552236564E0
4.101737958E0,3.444337463E-1,6.375242615E-1,3.813918915E0,3.882144933E0
4.111706958E0,1.408570862E-1,5.807922363E-1,4.442162476E0,4.482183374E0
4.121674958E0,1.715432739E-1,6.887178040E-1,4.951852570E0,5.002459713E0
4.131642958E0,5.248086548E-1,8.162525940E-1,5.803431702E0,5.884004753E0
4.141610958E0,9.753717041E-1,8.402027893E-1,7.195985870E0,7.310232783E0
4.151579958E0,1.578766937E0,7.188052368E-1,8.337512054E0,8.516060901E0
4.161547958E0,2.905158691E0,8.378077698E-1,9.313931580E0,9.792404728E0
4.171515958E0,5.152435455E0,1.066681824E0,1.062879730E1,1.185987914E1
4.181484958E0,8.070317688E0,8.180488586E-1,1.195444061E1,1.444672565E1
4.191452958E0,1.125644211E1,7.903564453E-2,1.303025345E1,1.721921138E1
4.201420958E0,1.388512573E1,-8.442443848E-1,1.387719223E1,1.964906943E1
4.211389958E0,1.609333374E1,-9.364526367E-1,1.421743469E1,2.149436632E1
4.221357958E0,1.810515015E1,1.782792664E-1,1.497141678E1,2.349407512E1
4.231325958E0,1.951072723E1,1.238075409E0,1.717288879E1,2.602132620E1
4.241293958E0,2.023417282E1,1.268312531E0,2.026755341E1,2.866712555E1
4.251262958E0,2.039553726E1,3.936813354E-2,2.294563431E1,3.069986358E1
4.261230958E0,1.959874420E1,-1.732796631E0,2.429732346E1,3.126456917E1
4.271198958E0,1.799378174E1,-3.486399994E0,2.371937531E1,2.997565564E1
4.281167958E0,1.567450470E1,-4.829706573E0,2.206726089E1,2.749509350E1
4.291135958E0,1.303369629E1,-5.278772736E0,2.028641418E1,2.468362374E1
4.301103958E0,1.082743423E1,-4.895120544E0,1.895657959E1,2.237291771E1
4.311072958E0,9.532477112E0,-3.744912415E0,1.779155228E1,2.052880467E1
4.321040958E0,8.381819916E0,-2.149530029E0,1.620305557E1,1.836884303E1
4.331008958E0,7.256609802E0,-8.830137634E-1,1.429347656E1,1.605433186E1
4.340977958E0,6.115981750E0,2.709365845E-2,1.235500763E1,1.378594140E1
4.350945958E0,4.813689880E0,7.283853149E-1,1.040890457E1,1.149119010E1
4.360913958E0,3.547622681E0,1.238225098E0,8.801247711E0,9.569785230E0
4.370881958E0,2.487377472E0,1.476230164E0,7.337292023E0,7.886834372E0
4.380850958E0,1.456471252E0,1.365310822E0,5.516777802E0,5.866874761E0
4.390818958E0,5.054988098E-1,1.245559845E0,3.704496460E0,3.940842854E0
4.400786958E0,-2.821632385E-1,1.147214355E0,2.101479950E0,2.410795481E0
4.410756583E0,-6.849755859E-1,1.206940155E0,7.141648865E-1,1.560745840E0
4.420724583E0,-9.391470337E-1,1.351539459E0,-5.947132874E-1,1.749954272E0
4.430692583E0,-1.118773499E0,1.601369934E0,-1.740131378E0,2.616122516E0
4.440661583E0,-9.217831421E-1,1.990710297E0,-2.630180511E0,3.424976083E0
4.450629583E0,-7.619155884E-1,2.292931824E0,-3.276536407E0,4.071086162E0
4.460597583E0,-8.310717773E-1,2.436333618E0,-3.425925751E0,4.285250173E0
4.470566583E0,-8.878038025E-1,2.392025757E0,-2.820584564E0,3.803377459E0
4.480534583E0,-7.312294006E-1,2.024689636E0,-1.594035187E0,2.678621425E0
4.490502583E0,-5.289999390E-1,1.608554993E0,-4.882846069E-1,1.762303027E0
4.500470583E0,-4.462220764E-1,1.237326965E0,6.710545349E-1,1.476619907E0
4.510439583E0,-3.915856934E-1,9.123527527E-1,1.901795197E0,2.145355884E0
4.520407583E0,-4.400848389E-1,6.173162842E-1,2.850522308E0,2.949615482E0
4.530375583E0,-6.379733276E-1,2.204914856E-1,3.265609131E0,3.334640829E0
4.540344583E0,-8.722361755E-1,-1.556762695E-2,3.314856720E0,3.427727144E0
4.550312583E0,-8.656498718E-1,1.842668152E-1,3.246598663E0,3.365071595E0
4.560280583E0,-4.748126221E-1,7.069798279E-1,3.568728790E0,3.668936178E0
4.570249583E0,6.960525513E-2,1.090482330E0,4.420906677E0,4.553944713E0
4.580217583E0,8.098159790E-1,1.053658905E0,5.333708496E0,5.496766807E0
4.590185583E0,1.681154022E0,9.303153992E-1,6.443500671E0,6.723872879E0
4.600154583E0,2.414029999E0,1.012644196E0,7.711813202E0,8.144019398E0
4.610122583E0,3.392096100E0,1.280736694E0,8.532556458E0,9.270982803E0
4.620090583E0,4.838388519E0,1.204994202E0,9.325008545E0,1.057439355E1
4.630058583E0,6.675218811E0,5.378315735E-1,1.057850189E1,1.252008432E1
4.640027583E0,8.578211517E0,-3.993695068E-1,1.195294373E1,1.471795069E1
4.649995583E0,1.082683548E1,-1.377285919E0,1.222657471E1,1.638921633E1
4.659963583E0,1.367181931E1,-2.071242828E0,1.116857483E1,1.777486297E1
4.669932583E0,1.659883255E1,-1.627116394E0,1.025098297E1,1.957680775E1
4.679900583E0,1.864223328E1,5.545967102E-1,1.063987427E1,2.147201349E1
4.689868583E0,2.007370651E1,3.222798157E0,1.407972107E1,2.473011659E1
4.699837583E0,2.092154343E1,3.855532379E0,2.051947952E1,2.955715056E1
4.709805583E0,2.076107712E1,2.373763733E0,2.625659912E1,3.355690800E1
4.719773583E0,1.952225327E1,8.232879639E-2,2.938150085E1,3.527602221E1
4.729742583E0,1.712873062E1,-2.229912872E0,2.899575302E1,3.375084617E1
4.739710583E0,1.410082718E1,-3.407963104E0,2.587848541E1,2.966721333E1
4.749678583E0,1.156360336E1,-3.049608307E0,2.263038986E1,2.559592895E1
4.759647583E0,9.816137238E0,-1.993853760E0,2.027982788E1,2.261865208E1
4.769615583E0,8.748706970E0,-1.130598907E0,1.852622452E1,2.051923786E1
4.779583583E0,7.697293396E0,-5.926176453E-1,1.684267548E1,1.852768843E1
4.789551583E0,6.368656311E0,-5.643264771E-1,1.484537888E1,1.616364815E1
4.799520583E0,4.842280426E0,-6.491999817E-1,1.258343262E1,1.349858944E1
4.809488583E0,3.239563293E0,-4.975653076E-1,1.023466690E1,1.074666219E1
4.819456583E0,1.715582428E0,-1.778302002E-1,7.823331299E0,8.011202111E0
4.829425583E0,4.839436340E-1,1.471440125E-1,5.146597595E0,5.171394358E0
4.839393583E0,-4.945715332E-1,4.830455017E-1,2.303260345E0,2.404774870E0
4.849361583E0,-1.246308289E0,7.952961731E-1,-2.460882568E-1,1.498779431E0
4.859330583E0,-1.947150879E0,1.088237000E0,-2.568359070E0,3.401782566E0
4.869298583E0,-2.423759766E0,1.376537476E0,-4.606371002E0,5.384061723E0
4.879266583E0,-2.575993195E0,1.600322113E0,-6.167923737E0,6.873140114E0
4.889234583E0,-2.453098755E0,1.666484528E0,-6.814728699E0,7.432051629E0
4.899203583E0,-2.222727814E0,1.713037720E0,-6.364315338E0,6.955539295E0
4.909171583E0,-1.644330597E0,1.747765503E0,-4.903353424E0,5.459064221E0
4.919139583E0,-8.247848511E-1,1.563348999E0,-3.091670837E0,3.561286103E0
4.929108583E0,-2.914439392E-1,1.451830902E0,-1.500479736E0,2.108125228E0
4.939076583E0,2.080673218E-2,1.295555878E0,-5.089416504E-3,1.295732941E0
4.949044583E0,9.310638428E-2,9.966275024E-1,1.215322723E0,1.574466417E0
4.959013583E0,-9.759704590E-2,6.707551575E-1,2.059118042E0,2.167811056E0
4.968981583E0,-2.299218750E-1,4.264631653E-1,2.439177704E0,2.486829864E0
4.978949583E0,-3.038681030E-1,3.984713745E-1,2.997965698E0,3.039558124E0
4.988918583E0,-4.875361633E-1,3.817062378E-1,3.582051086E0,3.635172781E0
4.998886583E0,-6.724017334E-1,3.037184143E-1,3.834126892E0,3.904471538E0
5.008854583E0,-8.934919739E-1,1.919009399E-1,3.884571991E0,3.990620682E0
5.018823583E0,-7.258406067E-1,1.582209778E-1,3.934568024E0,4.004085913E0
5.028791583E0,-2.035766602E-1,2.832110596E-1,4.297413483E0,4.311544341E0
5.038759583E0,4.290078735E-1,4.882846069E-1,4.787644043E0,4.831563421E0
5.048727583E0,9.286688232E-1,6.150709534E-1,5.283113708E0,5.399261849E0
5.058696583E0,1.538949738E0,8.304730225E-1,5.914351044E0,6.167463012E0
5.068664583E0,2.479294281E0,1.335073700E0,7.100185089E0,7.638190245E0
5.078632583E0,3.686982880E0,2.041454773E0,8.517437897E0,9.503058911E0
5.088601583E0,5.026696930E0,2.400707703E0,9.593999176E0,1.109395780E1
5.098569583E0,5.965993652E0,1.869163055E0,1.027418472E1,1.202687501E1
5.108537583E0,6.481222229E0,4.875361633E-1,1.031220566E1,1.218956597E1
5.118506583E0,7.256160736E0,-2.145488434E0,9.724677429E0,1.232170201E1
5.128474583E0,7.652087402E0,-5.143454132E0,9.282047882E0,1.308304150E1
5.138442583E0,7.310048676E0,-6.276747437E0,8.718918915E0,1.299438021E1
5.148411583E0,6.040688324E0,-4.237987061E0,7.961943054E0,1.085555097E1
5.158379583E0,5.932463379E0,-5.972579956E-1,1.003378464E1,1.167166111E1
5.168347583E0,9.122479706E0,1.986369324E0,1.830498459E1,2.054842475E1
5.178315583E0,1.331226700E1,2.220183105E0,2.800810684E1,3.109018679E1
5.188284583E0,1.646336426E1,1.038839722E-1,3.329406464E1,3.714226561E1
5.198252583E0,1.783615952E1,-2.658771057E0,3.235102570E1,3.703763644E1
5.208221583E0,1.703891739E1,-4.075874176E0,2.710443604E1,3.227364108E1
5.218189583E0,1.541689041E1,-4.012855225E0,2.087663681E1,2.626056895E1
5.228157583E0,1.386566620E1,-3.173400879E0,1.647429153E1,2.176532687E1
5.238125583E0,1.248808090E1,-2.459685059E0,1.489642273E1,1.959350978E1
5.248094583E0,1.131077911E1,-2.184407501E0,1.385698425E1,1.802002699E1
5.258062583E0,1.068897217E1,-1.470841370E0,1.385339172E1,1.755944084E1
5.268030583E0,9.133406982E0,-8.390052795E-1,1.457519073E1,1.722089539E1
5.277999583E0,6.980134735E0,-9.136999512E-1,1.443972244E1,1.606433045E1
5.287967583E0,5.781427460E0,-9.165440369E-1,1.410561722E1,1.527198067E1
5.297935583E0,5.045707397E0,-4.833448792E-1,1.335582642E1,1.428533810E1
5.307904583E0,4.293970642E0,3.116519165E-1,1.167841461E1,1.244671357E1
5.317872583E0,3.590583344E0,1.115630035E0,8.853339386E0,9.618655696E0
5.327840583E0,2.559078369E0,1.484013977E0,5.389542389E0,6.148036007E0
5.337809583E0,1.539548492E0,1.599274292E0,2.145189056E0,3.087025090E0
5.347777583E0,1.038839722E0,2.040107574E0,8.951385498E-2,2.291121911E0
5.357745583E0,4.161346436E-1,2.539469147E0,-9.163943481E-1,2.731638737E0
5.367714583E0,-6.005511475E-1,2.436632996E0,-1.962718506E0,3.185923095E0
5.377682583E0,-1.395248566E0,1.830992432E0,-2.438878326E0,3.353711278E0
5.387650583E0,-1.768422546E0,1.004561005E0,-2.017055511E0,2.864432588E0
5.397618583E0,-1.480122070E0,3.341052246E-1,-7.927514648E-1,1.711970365E0
5.407587333E0,-7.960446167E-1,2.508782959E-1,6.104306030E-1,1.034046649E0
5.417555333E0,-2.769241333E-1,4.748126221E-1,2.134261780E0,2.203907291E0
5.427523333E0,2.466870117E-1,4.810995483E-1,3.482059021E0,3.523782951E0
5.437492333E0,6.324348450E-1,4.911286926E-1,4.185296631E0,4.261207471E0
5.447460333E0,6.116281128E-1,4.457730103E-1,4.252207489E0,4.319035894E0
5.457428333E0,4.676275635E-1,2.603086853E-1,3.585493927E0,3.625217628E0
5.467397333E0,4.694238281E-1,2.499801636E-1,2.749482422E0,2.800446822E0
5.477365333E0,7.402107239E-1,2.917433167E-1,2.468965759E0,2.593996530E0
5.487333333E0,1.204096069E0,4.022135925E-1,2.611619110E0,2.903821188E0
5.497302333E0,1.763782196E0,6.472540283E-1,3.330574036E0,3.823949375E0
5.507270333E0,2.157762909E0,8.499325562E-1,4.555925903E0,5.112219377E0
5.517238333E0,2.664608917E0,1.156345367E0,5.896987152E0,6.573563171E0
5.527207333E0,3.525169373E0,1.316661987E0,7.156468048E0,8.085508816E0
5.537175333E0,4.817432098E0,1.025517426E0,8.327632599E0,9.675164222E0
5.547143333E0,6.343658295E0,8.315208435E-1,8.934770050E0,1.098924671E1
5.557112333E0,7.664511566E0,1.024469604E0,8.987011414E0,1.185582767E1
5.567080333E0,8.639284515E0,1.218166809E0,9.003477173E0,1.253729510E1
5.577048333E0,1.024469604E1,1.378184052E0,8.840765533E0,1.360192352E1
5.587016333E0,1.163739990E1,1.325493622E0,8.621471558E0,1.454358215E1
5.596985333E0,1.262399826E1,8.446934509E-1,8.420140228E0,1.519794725E1
5.606953333E0,1.345671661E1,9.520202637E-2,8.392148438E0,1.585939598E1
5.616921333E0,1.436682404E1,-5.264552307E-1,8.778345337E0,1.684464707E1
5.626890333E0,1.522004974E1,-1.158291321E0,1.017838394E1,1.834641798E1
5.636858333E0,1.547317337E1,-1.617985382E0,1.221519836E1,1.977999095E1
5.646826333E0,1.566088303E1,-1.852248230E0,1.419108948E1,2.121511492E1
5.656795333E0,1.592403580E1,-2.341281281E0,1.635259460E1,2.294480038E1
5.666763333E0,1.638986710E1,-3.489393768E0,1.850526810E1,2.496494662E1
5.676731333E0,1.690060501E1,-4.976700897E0,2.011217651E1,2.673756993E1
5.686700333E0,1.592059296E1,-6.512806549E0,2.053744217E1,2.678933482E1
5.696668333E0,1.389934616E1,-7.403903503E0,1.965772156E1,2.518800563E1
5.706636333E0,1.165835632E1,-7.490872650E0,1.797881287E1,2.269951888E1
5.716605333E0,9.405990143E0,-6.747069397E0,1.630723892E1,1.999804084E1
5.726573333E0,7.434290314E0,-5.359305267E0,1.487950790E1,1.747542792E1
5.736541333E0,5.769751740E0,-3.896547089E0,1.364801880E1,1.532127708E1
5.746510333E0,4.083657990E0,-2.921175385E0,1.229273712E1,1.327858856E1
5.756478333E0,2.141446838E0,-2.358794861E0,1.124686203E1,1.168938036E1
5.766446333E0,9.520202637E-2,-2.017803955E0,1.032043854E1,1.051627538E1
5.776415333E0,-1.900447998E0,-2.136956177E0,9.085356903E0,9.524809413E0
5.786383333E0,-3.453169098E0,-2.226619720E0,7.803722076E0,8.819313491E0
5.796351333E0,-3.912563782E0,-2.156266022E0,6.201154633E0,7.642771571E0
5.806319333E0,-4.117038574E0,-2.005978546E0,4.297263794E0,6.280161834E0
5.816288333E0,-3.841461639E0,-1.624122620E0,2.630180511E0,4.930765796E0
5.826256333E0,-2.892884216E0,-1.081051941E0,1.171463928E0,3.302995629E0
5.836224333E0,-1.582209778E0,-1.993853760E-1,-5.718109131E-2,1.595748096E0
5.846193333E0,-3.481759644E-1,8.349636841E-1,-1.081800385E0,1.410206697E0
5.856161333E0,5.846841431E-1,1.718725891E0,-1.633253632E0,2.442005664E0
5.866129333E0,1.411714325E0,2.313289490E0,-1.304237823E0,3.007537514E0
5.876098333E0,1.949545898E0,2.346221008E0,-3.119512939E-1,3.066397861E0
5.886066333E0,1.872755585E0,1.797911224E0,4.474195862E-1,2.634365680E0
5.896034333E0,1.683099976E0,1.129401398E0,1.078806610E0,2.296126466E0
5.906003333E0,1.567839661E0,5.209167480E-1,2.156266022E0,2.716423865E0
5.915971333E0,1.519041138E0,1.975891113E-1,3.166215820E0,3.517307217E0
5.925939333E0,1.436113586E0,3.276686096E-1,3.726949768E0,4.007485936E0
5.935908333E0,1.455124054E0,7.149133301E-1,3.802243195E0,4.133465906E0
5.945876333E0,1.467847595E0,9.791139221E-1,3.678300934E0,4.079600274E0
5.955844333E0,1.475332031E0,1.051563263E0,4.058210907E0,4.444262106E0
5.965813333E0,1.528920593E0,1.159937897E0,4.603826294E0,4.987812211E0
5.975781333E0,1.838327179E0,1.139729919E0,5.405858459E0,5.822519797E0
5.985749333E0,2.396516418E0,8.616082764E-1,6.624324646E0,7.096994912E0
5.995718333E0,2.887196045E0,4.376898193E-1,7.669301605E0,8.206440184E0
6.005686333E0,3.991000671E0,1.279838562E-1,8.078101501E0,9.011114809E0
6.015654333E0,5.645809479E0,-4.040098572E-1,8.680748291E0,1.036309700E1
6.025622333E0,7.724237366E0,-1.380579071E0,9.620793457E0,1.241489058E1
6.035591333E0,1.033555710E1,-2.528092804E0,1.068567902E1,1.507974568E1
6.045559333E0,1.279614029E1,-3.553310852E0,1.187720123E1,1.781670939E1
6.055527333E0,1.509221558E1,-4.361480255E0,1.312485672E1,2.047093903E1
6.065496333E0,1.638148453E1,-4.137845306E0,1.507425293E1,2.264305413E1
6.075464333E0,1.658655807E1,-2.811902618E0,1.770203842E1,2.442095144E1
6.085432333E0,1.623179581E1,-1.970352631E0,1.998943176E1,2.582500468E1
6.095401333E0,1.595412323E1,-1.729054413E0,2.180365906E1,2.707255484E1
6.105369333E0,1.542991333E1,-2.134112091E0,2.258653107E1,2.743698317E1
6.115337333E0,1.458312424E1,-3.279230804E0,2.159469360E1,2.626312356E1
6.125306333E0,1.357257568E1,-4.268373871E0,1.920162003E1,2.389845262E1
6.135274333E0,1.261516663E1,-4.765939178E0,1.699625610E1,2.169629754E1
6.145242333E0,1.193498108E1,-4.921914825E0,1.619392456E1,2.071019584E1
6.155211333E0,1.150702103E1,-4.562661896E0,1.633792511E1,2.049773679E1
6.165179333E0,1.110944778E1,-3.723806305E0,1.581191895E1,1.968002399E1
6.175147333E0,1.017643799E1,-2.706372070E0,1.441247910E1,1.784947880E1
6.185116333E0,8.884774017E0,-1.751058655E0,1.295705566E1,1.580793178E1
6.195084333E0,7.276069336E0,-1.241518250E0,1.178693893E1,1.390735352E1
6.205052333E0,5.305866394E0,-9.051676941E-1,1.053329590E1,1.182885748E1
6.215021333E0,3.475772095E0,-7.135661316E-1,8.469687195E0,9.182906373E0
6.224989333E0,1.945653992E0,-5.110372925E-1,6.277495880E0,6.591940768E0
6.234957333E0,8.132588196E-1,-5.254074097E-2,4.386777649E0,4.461834665E0
6.244926333E0,-1.306782532E-1,2.537223816E-1,2.585273895E0,2.600979232E0
6.254894333E0,-9.150471497E-1,3.481759644E-1,8.342152405E-1,1.286255362E0
6.264862333E0,-1.498234406E0,5.517526245E-1,-5.005590820E-1,1.673229419E0
6.274831333E0,-1.763931885E0,7.646099854E-1,-1.620979156E0,2.514688360E0
6.284799333E0,-1.894011383E0,8.261320496E-1,-2.534379730E0,3.269992951E0
6.294767333E0,-1.597328339E0,8.987310791E-1,-3.092419281E0,3.594750671E0
6.304735333E0,-8.348139954E-1,1.047970734E0,-3.146157532E0,3.419570774E0
6.314704333E0,6.316864014E-2,1.268611908E0,-2.948418732E0,3.210379957E0
6.324672333E0,7.914042664E-1,1.526824951E0,-2.488874359E0,3.025229036E0
6.334640333E0,1.424288177E0,1.631307678E0,-1.986369324E0,2.938609304E0
6.344609333E0,2.096540222E0,1.632355499E0,-1.093326416E0,2.873226067E0
6.354577333E0,2.561473389E0,1.648821259E0,1.676513672E-2,3.046315567E0
6.364545333E0,2.770588531E0,1.583556976E0,9.012757874E-1,3.316038533E0
6.374514333E0,2.954855347E0,1.607357483E0,1.665736084E0,3.753590934E0
6.384482333E0,3.214864655E0,1.550176392E0,2.567760315E0,4.396793676E0
6.394450333E0,3.054098969E0,1.348545685E0,3.627257080E0,4.929816416E0
6.404419333E0,2.666854248E0,1.208586731E0,4.367767181E0,5.258344190E0
6.414386958E0,2.478396149E0,1.132694550E0,4.818928986E0,5.536020320E0
6.424354958E0,2.353855133E0,9.749226379E-1,5.241051178E0,5.827497369E0
6.434323958E0,2.187101898E0,8.885522461E-1,5.358407135E0,5.855379307E0
6.444291958E0,2.252964935E0,9.413923645E-1,5.431754608E0,5.955336154E0
6.454259958E0,2.391127625E0,7.366181946E-1,5.868246918E0,6.379374544E0
6.464228958E0,2.719993744E0,9.939331055E-2,6.883136444E0,7.401743869E0
6.474196958E0,3.353326721E0,-3.477268982E-1,8.200846252E0,8.866769048E0
6.484164958E0,4.495451660E0,-4.171824646E-1,9.273216248E0,1.031385798E1
6.494132958E0,6.319558411E0,-1.062490540E0,1.009710297E1,1.195897960E1
6.504101958E0,8.077353058E0,-2.135309601E0,1.117306549E1,1.395136452E1
6.514069958E0,1.037941589E1,-2.805765381E0,1.222672440E1,1.628181142E1
6.524037958E0,1.322095688E1,-3.017574921E0,1.304686890E1,1.881808298E1
6.534006958E0,1.558738586E1,-3.143014069E0,1.343830490E1,2.081905795E1
6.543974958E0,1.626023666E1,-3.006348267E0,1.300570450E1,2.103762762E1
6.553942958E0,1.532587967E1,-2.840493164E0,1.207673630E1,1.971797527E1
6.563911958E0,1.358529922E1,-3.043920135E0,1.224348953E1,1.853992559E1
6.573879958E0,1.203317688E1,-3.714824982E0,1.363050522E1,1.855769229E1
6.583847958E0,1.153022278E1,-4.602329407E0,1.631277740E1,2.049961414E1
6.593816958E0,1.205952209E1,-5.082081757E0,1.946267715E1,2.345326054E1
6.603784958E0,1.246457977E1,-5.068609772E0,2.151775360E1,2.537853963E1
6.613752958E0,1.253463409E1,-4.922513580E0,2.199076996E1,2.578647233E1
6.623721958E0,1.213721054E1,-4.685406647E0,2.131118317E1,2.496860915E1
6.633689958E0,1.153366562E1,-4.147425385E0,2.048564987E1,2.387233609E1
6.643657958E0,1.097622482E1,-3.387904816E0,1.993689102E1,2.300945532E1
6.653626958E0,1.062969543E1,-2.398013306E0,1.816532501E1,2.118301031E1
6.663594958E0,9.932145996E0,-1.346599731E0,1.516271896E1,1.817605296E1
6.673562958E0,8.529562683E0,-3.047662354E-1,1.230546066E1,1.497566974E1
6.683531958E0,7.503745880E0,6.066883850E-1,9.996063080E0,1.251381437E1
6.693499958E0,6.328090668E0,9.798623657E-1,8.085585938E0,1.031414377E1
6.703467958E0,4.695435791E0,1.028062134E0,6.776109009E0,8.307808515E0
6.713436958E0,3.041076050E0,9.216334534E-1,5.966742096E0,6.760145191E0
6.723404958E0,1.714534607E0,6.004014587E-1,5.146447906E0,5.457658553E0
6.733372958E0,6.592291260E-1,2.293231201E-1,3.695215759E0,3.760557358E0
6.743341958E0,-3.309617615E-1,1.193019104E-1,1.681752777E0,1.718156290E0
6.753309958E0,-9.978250122E-1,2.658471680E-1,-6.381230164E-1,1.213890628E0
6.763277958E0,-1.329385529E0,4.734654236E-1,-3.053799591E0,3.364093835E0
6.773246958E0,-1.426383820E0,6.117778015E-1,-4.894372101E0,5.134561436E0
6.783214958E0,-1.422791290E0,8.050259399E-1,-5.821693726E0,6.046860314E0
6.793182958E0,-1.315314789E0,1.028810577E0,-5.854774933E0,6.088258677E0
6.803150958E0,-8.622070313E-1,9.580078125E-1,-4.765041046E0,4.936273504E0
6.813119958E0,-2.439926147E-1,4.989125061E-1,-2.743943939E0,2.799584688E0
6.823087958E0,4.592449951E-1,1.505868530E-1,-9.511221313E-1,1.066871911E0
6.833055958E0,1.255738678E0,7.694000244E-2,1.146016846E0,1.701809038E0
6.843024958E0,1.711241455E0,-1.895059204E-1,2.773282928E0,3.264254588E0
6.852992958E0,2.028581543E0,-4.924758911E-1,3.552113342E0,4.120095239E0
6.862960958E0,2.370021515E0,-3.634442139E-1,3.584446106E0,4.312464210E0
6.872929958E0,2.511177979E0,1.661544800E-1,3.234473877E0,4.098224422E0
6.882897958E0,2.222278748E0,5.843847656E-1,2.451751556E0,3.360225302E0
6.892865958E0,1.873354340E0,8.217910767E-1,1.869612122E0,2.771325773E0
6.902834958E0,1.481020203E0,7.544311523E-1,2.326162720E0,2.858954390E0
6.912802958E0,1.181044006E0,3.296145630E-1,3.337010651E0,3.555158335E0
6.922770958E0,1.119521942E0,7.484436035E-4,4.279750214E0,4.423753138E0
6.932739958E0,1.505120087E0,5.074447632E-2,5.168003082E0,5.382956189E0
6.942707958E0,2.179018707E0,1.681004333E-1,5.930367737E0,6.320256464E0
6.952675958E0,3.237467651E0,3.025209045E-1,6.832242279E0,7.566521675E0
6.962644958E0,4.569547577E0,6.243516541E-1,7.517816620E0,8.819758884E0
6.972612958E0,6.363117828E0,7.220983887E-1,8.118218079E0,1.034002705E1
6.982580958E0,8.067323914E0,5.559439087E-1,9.075477448E0,1.215545473E1
6.992549958E0,9.466165009E0,-5.857319641E-1,1.062580353E1,1.424286005E1
7.002517958E0,1.059646454E1,-2.384092255E0,1.329834595E1,1.717017651E1
7.012485958E0,1.205188797E1,-3.852987671E0,1.638223297E1,2.069954286E1
7.022454958E0,1.350671265E1,-4.201163635E0,1.821202789E1,2.305990075E1
7.032422958E0,1.436233337E1,-3.506607971E0,1.852098541E1,2.369809739E1
7.042390958E0,1.520014114E1,-2.255659332E0,1.779065414E1,2.350828928E1
7.052359958E0,1.581416428E1,-1.441951447E0,1.806638077E1,2.405329769E1
7.062327958E0,1.613629440E1,-1.757345581E0,1.986084915E1,2.564998225E1
7.072295958E0,1.644240784E1,-2.595602417E0,2.125205612E1,2.699518136E1
7.082264958E0,1.628074402E1,-3.229534149E0,2.146072220E1,2.713033568E1
7.092232958E0,1.588242233E1,-3.421584778E0,2.096989288E1,2.652724993E1
7.102200958E0,1.517544250E1,-3.330274658E0,2.060540085E1,2.580634280E1
7.112169958E0,1.412807053E1,-3.041674805E0,2.025033920E1,2.487831184E1
7.122137958E0,1.267234772E1,-2.740650787E0,1.903950714E1,2.303480835E1
7.132105958E0,1.118938156E1,-2.462828522E0,1.726719269E1,2.072254153E1
7.142074958E0,9.950557709E0,-2.137854309E0,1.532902313E1,1.840008071E1
7.152042958E0,8.631201324E0,-1.725312195E0,1.337633377E1,1.601251522E1
7.162010958E0,7.130422211E0,-1.271156616E0,1.135493729E1,1.346823525E1
7.171978958E0,5.766907654E0,-8.167016602E-1,9.449998627E0,1.110075221E1
7.181947958E0,4.701722717E0,-4.769082642E-1,8.031697998E0,9.318895360E0
7.191915958E0,3.576213226E0,-3.008743286E-1,6.781348114E0,7.672451280E0
7.201883958E0,2.216889954E0,-3.849993896E-1,5.500012665E0,5.942471280E0
7.211852958E0,9.788145447E-1,-6.236032104E-1,4.070934448E0,4.233139043E0
7.221820958E0,1.532812500E-1,-4.968168640E-1,2.619851990E0,2.670944886E0
7.231788958E0,-3.653901672E-1,-8.592132568E-2,8.798703003E-1,9.565898776E-1
7.241757958E0,-7.881111145E-1,2.195933533E-1,-8.449928284E-1,1.176160384E0
7.251725958E0,-1.369202728E0,3.972738647E-1,-1.994751892E0,2.451851901E0
7.261693958E0,-1.518592072E0,6.177653503E-1,-2.560126190E0,3.040066121E0
7.271662958E0,-1.241817627E0,8.616082764E-1,-2.681673431E0,3.078287224E0
7.281630958E0,-6.042933655E-1,1.081351318E0,-2.541564789E0,2.827373821E0
7.291598958E0,-1.113684082E-1,1.292412415E0,-1.667981415E0,2.113029761E0
7.301567958E0,3.788621521E-1,1.460512848E0,-8.075706482E-1,1.711375079E0
7.311535958E0,7.987390137E-1,1.372346191E0,-3.682342529E-2,1.588292809E0
7.321503958E0,1.068777466E0,1.159788208E0,4.372407532E-1,1.636634790E0
7.331472958E0,1.174607391E0,9.653425598E-1,6.551875305E-1,1.655554131E0
7.341440958E0,1.116079102E0,7.018904114E-1,5.333409119E-1,1.422228968E0
7.351408958E0,8.050259399E-1,3.835025024E-1,4.469705200E-1,9.974585601E-1
7.361377958E0,2.953358459E-1,1.058299255E-1,5.926176453E-1,6.705362843E-1
7.371345958E0,-1.945953369E-3,-1.073268127E-1,8.836125183E-1,8.901089338E-1
7.381313958E0,-4.026626587E-2,-2.423460388E-1,1.350341949E0,1.372507324E0
7.391282958E0,-2.043251038E-1,-3.876937866E-1,2.007774811E0,2.055046207E0
7.401250958E0,-1.995350647E-1,-4.372407532E-1,2.489922180E0,2.535883708E0
7.411219625E0,2.974314880E-1,-4.096980286E-1,3.206631775E0,3.246352616E0
7.421188625E0,7.973918152E-1,-1.999841309E-1,4.108805695E0,4.190240040E0
7.431156625E0,1.500330048E0,2.794688416E-1,4.886887665E0,5.119644923E0
7.441124625E0,2.413131866E0,3.535647583E-1,5.743256836E0,6.239648430E0
7.451093625E0,3.317850494E0,1.212478638E-2,6.996600494E0,7.743429304E0
7.461061625E0,4.610861664E0,-3.571572876E-1,8.409811707E0,9.597527783E0
7.471029625E0,6.216572571E0,-8.604107666E-1,9.501790924E0,1.138727852E1
7.480998625E0,7.815996552E0,-1.701362000E0,1.081605789E1,1.345256641E1
7.490966625E0,9.638606415E0,-2.330054626E0,1.214664093E1,1.568033080E1
7.500934625E0,1.193662766E1,-2.677482147E0,1.280871414E1,1.771200577E1
7.510903625E0,1.386910904E1,-2.775528259E0,1.349413879E1,1.954859393E1
7.520871625E0,1.557406357E1,-2.645448761E0,1.485810242E1,2.168670244E1
7.530839625E0,1.702394852E1,-2.177372131E0,1.694880478E1,2.412089874E1
7.540808625E0,1.770682846E1,-1.563798065E0,1.950758377E1,2.639172338E1
7.550776625E0,1.711436050E1,-1.533411255E0,2.171878555E1,2.769401256E1
7.560744625E0,1.567345688E1,-2.527943115E0,2.295775909E1,2.791247838E1
7.570712625E0,1.453043381E1,-3.771107941E0,2.281360886E1,2.730962304E1
7.580681625E0,1.388093445E1,-4.304448853E0,2.158182037E1,2.601890835E1
7.590649625E0,1.351314926E1,-4.148473206E0,2.030707123E1,2.474251755E1
7.600617625E0,1.343306580E1,-3.572620697E0,1.907648026E1,2.360345259E1
7.610586625E0,1.334205505E1,-2.969524841E0,1.809212723E1,2.267495487E1
7.620554625E0,1.325299026E1,-2.235151978E0,1.720836502E1,2.183496009E1
7.630522625E0,1.284314255E1,-1.279988251E0,1.572794357E1,2.034583224E1
7.640491625E0,1.221849152E1,-1.305285645E-1,1.396880173E1,1.855898689E1
7.650459625E0,1.085782104E1,6.182144165E-1,1.235590576E1,1.646034247E1
7.660427625E0,8.587492218E0,6.917115784E-1,1.036295013E1,1.347643213E1
7.670396625E0,6.230643311E0,4.567002869E-1,8.346493378E0,1.042561475E1
7.680364625E0,4.100722504E0,3.293151855E-2,6.583609314E0,7.756347152E0
7.690332625E0,2.407593384E0,-8.247848511E-2,5.055137787E0,5.599797018E0
7.700301625E0,1.153501282E0,1.468446350E-1,3.588338013E0,3.772041655E0
7.710269625E0,4.243675232E-1,6.156697083E-1,2.218237152E0,2.340878691E0
7.720237625E0,1.447489929E-1,1.331930237E0,1.012644196E0,1.679416176E0
7.730206625E0,2.694396973E-3,2.215393066E0,6.271957397E-2,2.216282347E0
7.740174625E0,-1.502874756E-1,2.345771942E0,-1.499581604E0,2.788185309E0
7.750142625E0,-3.897894287E-1,2.123633881E0,-2.844085693E0,3.570795442E0
7.760111625E0,-5.884263611E-1,2.402354279E0,-3.710334320E0,4.459162750E0
7.770079625E0,-8.298742676E-1,2.238295441E0,-4.148772583E0,4.786540685E0
7.780047625E0,-1.075363770E0,1.621877289E0,-3.978127441E0,4.428587937E0
7.790016625E0,-1.224453735E0,1.167871399E0,-3.290307770E0,3.699910239E0
7.799984625E0,-1.254690857E0,7.647596741E-1,-2.112556915E0,2.573325325E0
7.809952625E0,-1.278042297E0,1.643582153E-1,-9.463320923E-1,1.598733926E0
7.819921625E0,-1.296903076E0,-1.450483704E-1,5.882766724E-2,1.306314401E0
7.829889625E0,-1.254690857E0,-1.157093811E-1,1.030457153E0,1.627722259E0
7.839857625E0,-1.260079651E0,-2.829116821E-2,1.796564026E0,2.194594135E0
7.849826625E0,-1.252445526E0,-9.056167603E-2,2.291884003E0,2.613341442E0
7.859794625E0,-8.955876160E-1,-2.074685669E-1,2.700534210E0,2.852718949E0
7.869762625E0,-4.071533203E-1,-5.325924683E-1,3.432961121E0,3.497806544E0
7.879731625E0,3.293151855E-2,-8.289761353E-1,4.146527252E0,4.228708334E0
7.889699625E0,6.812333679E-1,-8.024812317E-1,4.903353424E0,5.015070272E0
7.899667625E0,1.600022736E0,-4.049079895E-1,5.895939331E0,6.122591268E0
7.909636625E0,2.707569580E0,1.838177490E-1,6.853348389E0,7.371099384E0
7.919604625E0,4.170926514E0,5.608836365E-1,7.134763184E0,8.283481401E0
7.929572625E0,5.522016907E0,6.667135620E-1,7.124434662E0,9.038514643E0
7.939541625E0,7.127428436E0,8.003855896E-1,7.245383148E0,1.019492178E1
7.949509625E0,8.696914673E0,5.149291992E-1,8.361162872E0,1.207520275E1
7.959477625E0,1.034169434E1,-2.055226135E-1,1.069600754E1,1.487943072E1
7.969446625E0,1.187256088E1,-8.297245789E-1,1.212269073E1,1.698840120E1
7.979414625E0,1.338292007E1,-1.140628052E0,1.277563293E1,1.853700027E1
7.989382625E0,1.476334946E1,-1.353934479E0,1.296379166E1,1.969389550E1
7.999351625E0,1.621263565E1,-1.389261017E0,1.291304718E1,2.077321324E1
8.009319625E0,1.735101837E1,-1.524130554E0,1.340402618E1,2.197836960E1
8.019287625E0,1.840377914E1,-1.323697357E0,1.467727844E1,2.357697529E1
8.029256625E0,1.923455154E1,-1.282832336E0,1.686512878E1,2.561339885E1
8.039224625E0,1.987581802E1,-1.646276550E0,1.911345337E1,2.762394737E1
8.049192625E0,2.074371323E1,-2.147584076E0,2.113769394E1,2.969370069E1
8.059161625E0,2.114921997E1,-2.507735138E0,2.357133316E1,3.176768780E1
8.069129625E0,2.056049423E1,-2.637664948E0,2.531116516E1,3.271614710E1
8.079097625E0,1.891406799E1,-2.969824219E0,2.483485565E1,3.135812302E1
8.089066625E0,1.648776352E1,-3.128793640E0,2.218761063E1,2.781952122E1
8.099034625E0,1.399948792E1,-2.916085968E0,1.827968719E1,2.320853686E1
8.109002625E0,1.181972076E1,-2.373614044E0,1.476664261E1,1.906288479E1
8.118971625E0,9.614207153E0,-1.896705780E0,1.170969955E1,1.526916945E1
8.128939625E0,7.125482483E0,-1.660047913E0,8.749455414E0,1.140531585E1
8.138907625E0,4.772226105E0,-1.525477753E0,6.363716583E0,8.099266209E0
8.148876625E0,2.903811493E0,-1.325493622E0,4.776567078E0,5.744967152E0
8.158844625E0,1.548829193E0,-1.031055908E0,3.701652374E0,4.142967349E0
8.168812625E0,8.657995605E-1,-4.743635559E-1,2.837349701E0,3.004194233E0
8.178781625E0,4.775070190E-1,3.294648743E-1,1.935026093E0,2.020120302E0
8.188749625E0,5.022056580E-1,1.096020813E0,8.241860962E-1,1.460395449E0
8.198717625E0,5.011578369E-1,1.523232422E0,-3.381468201E-1,1.638822584E0
8.208686625E0,9.909393311E-2,1.813029785E0,-1.548230438E0,2.386192385E0
8.218654625E0,-3.273692322E-1,1.928290100E0,-2.659070435E0,3.300928491E0
8.228622625E0,-8.131091309E-1,1.747915192E0,-3.135829010E0,3.681002249E0
8.238591625E0,-1.204245758E0,1.609453125E0,-2.970722351E0,3.586884232E0
8.248559625E0,-1.215622101E0,1.303938446E0,-2.458487549E0,3.036799893E0
8.258527625E0,-7.692503357E-1,9.596543884E-1,-1.558409271E0,1.985276324E0
8.268496625E0,-4.269122314E-1,5.836363220E-1,-6.318360901E-1,9.602615552E-1
8.278464625E0,-1.862127686E-1,2.950364685E-1,2.339634705E-1,4.200721586E-1
8.288432625E0,-3.053649902E-2,-2.080673218E-2,9.038204956E-1,9.045755282E-1
8.298401625E0,1.793270874E-1,-4.149371338E-1,1.432221680E0,1.501862167E0
8.308369625E0,3.969744873E-1,-7.138655090E-1,1.442250824E0,1.657492126E0
8.318337625E0,5.158273315E-1,-8.351133728E-1,9.375004578E-1,1.357350098E0
8.328306625E0,4.348457336E-1,-6.746470642E-1,8.430468750E-1,1.164030716E0
8.338274625E0,3.534150696E-1,-3.588038635E-1,1.165925446E0,1.270049042E0
8.348242625E0,4.396357727E-1,-3.787124634E-2,1.535357208E0,1.597509186E0
8.358211625E0,5.685177612E-1,2.194436646E-1,2.049238586E0,2.137930483E0
8.368179625E0,5.818400574E-1,1.444496155E-1,2.747686157E0,2.812326930E0
8.378147625E0,8.066725159E-1,-3.263214111E-2,3.451821899E0,3.544976704E0
8.388116625E0,1.646725616E0,5.748046875E-2,4.248315582E0,4.556664849E0
8.398084625E0,2.758314056E0,2.200424194E-1,5.119653625E0,5.819584895E0
8.408052000E0,4.165537720E0,4.155358887E-1,5.943390656E0,7.269681358E0
8.418021000E0,5.658383331E0,8.102650452E-1,6.939120026E0,8.990284651E0
8.427989000E0,7.247628479E0,1.014141083E0,7.692353668E0,1.061738695E1
8.437957000E0,8.966054993E0,7.509883118E-1,8.719218292E0,1.252912180E1
8.447926000E0,1.040426422E1,2.535726929E-1,1.027987289E1,1.462835602E1
8.457894000E0,1.160012741E1,-3.519181824E-1,1.152034332E1,1.635252618E1
8.467862000E0,1.255753647E1,-1.505120087E0,1.253792725E1,1.780889464E1
8.477831000E0,1.328382614E1,-2.770887909E0,1.360460907E1,1.921518266E1
8.487799000E0,1.350536545E1,-3.384761353E0,1.452758972E1,2.012218598E1
8.497768000E0,1.361104568E1,-2.909499664E0,1.600441864E1,2.121007235E1
8.507736000E0,1.452699097E1,-1.651815033E0,1.763752258E1,2.290947757E1
8.517704000E0,1.615141296E1,-5.968089294E-1,1.904519531E1,2.497886679E1
8.527673000E0,1.767524414E1,2.335144043E-2,1.951776260E1,2.633168923E1
8.537641000E0,1.863714386E1,2.448907471E-1,1.854882751E1,2.629566704E1
8.547609000E0,1.950264404E1,3.748205566E-1,1.780966461E1,2.641359061E1
8.557578000E0,1.982567230E1,4.340972900E-3,1.785202652E1,2.667868347E1
8.567546000E0,1.905627228E1,-7.608677673E-1,1.838791214E1,2.649218273E1
8.577514000E0,1.727033615E1,-1.484313354E0,1.839030716E1,2.527194283E1
8.587483000E0,1.512305145E1,-1.956730957E0,1.784289551E1,2.347135278E1
8.597451000E0,1.294597870E1,-2.116598511E0,1.694820602E1,2.143175311E1
8.607419000E0,1.062969543E1,-2.000739441E0,1.571926163E1,1.908110504E1
8.617388000E0,8.228089600E0,-1.570833435E0,1.436951843E1,1.663286013E1
8.627356000E0,6.242019653E0,-9.096583557E-1,1.309372147E1,1.453395437E1
8.637324000E0,4.841681671E0,-3.294648743E-1,1.163081360E1,1.260262883E1
8.647293000E0,3.745361481E0,-3.158432007E-2,9.413175201E0,1.013097219E1
8.657261000E0,2.747237091E0,1.151106262E-1,6.872807922E0,7.402435466E0
8.667229000E0,1.530567169E0,7.005432129E-2,4.323609009E0,4.587062058E0
8.677198000E0,2.616558838E-1,-1.996847534E-1,2.007176056E0,2.033984641E0
8.687166000E0,-6.572831726E-1,-1.868115234E-1,3.519181824E-1,7.686131155E-1
8.697134000E0,-1.416504364E0,-1.595681763E-1,-1.002165985E0,1.742493408E0
8.707103000E0,-1.875150604E0,-1.739382935E-1,-2.142344971E0,2.852382564E0
8.717071000E0,-1.794468384E0,-8.696914673E-2,-3.156336365E0,3.631823187E0
8.727039000E0,-1.226699066E0,3.189866638E-1,-4.005071411E0,4.200849926E0
8.737008000E0,-8.159532166E-1,7.661068726E-1,-4.463268585E0,4.601463447E0
8.746976000E0,-5.414241028E-1,8.891510010E-1,-4.378245392E0,4.500306909E0
8.756944000E0,-9.580078125E-2,7.822732544E-1,-3.596720581E0,3.682054884E0
8.766913000E0,4.602928162E-1,7.403604126E-1,-1.920805664E0,2.109383184E0
8.776881000E0,1.015637970E0,6.890171814E-1,-3.053649902E-1,1.264718522E0
8.786849000E0,1.270707550E0,5.918692017E-1,6.360273743E-1,1.539330260E0
8.796818000E0,1.333127747E0,5.513035583E-1,1.086590424E0,1.806057571E0
8.806786000E0,1.357826385E0,5.081932068E-1,1.041683807E0,1.785233313E0
8.816755000E0,1.133892059E0,3.998185730E-1,8.797206116E-1,1.489790068E0
8.826723000E0,8.553213501E-1,3.673361206E-1,1.044527893E0,1.399124354E0
8.836691000E0,6.198609924E-1,3.742218018E-1,1.347348175E0,1.529580567E0
8.846660000E0,7.053332520E-1,4.831951904E-1,2.019450531E0,2.192978120E0
8.856628000E0,1.001118164E0,6.041436768E-1,2.811752930E0,3.045189928E0
8.866596000E0,1.396895142E0,7.325765991E-1,3.675905914E0,4.000033600E0
8.876565000E0,2.000739441E0,8.184979248E-1,4.197870483E0,4.721759604E0
8.886533000E0,2.792443085E0,1.017883301E0,4.483626251E0,5.379287049E0
8.896501000E0,3.860322418E0,1.510658569E0,4.406536560E0,6.049937433E0
8.906470000E0,5.276976471E0,1.984573059E0,4.241579590E0,7.055211430E0
8.916438000E0,6.765630798E0,1.951342163E0,4.785548401E0,8.513693078E0
8.926406000E0,8.502169647E0,1.504072266E0,5.969436493E0,1.049682305E1
8.936375000E0,1.049497559E1,5.992039490E-1,7.621401215E0,1.298419479E1
8.946343000E0,1.274240204E1,-5.972579956E-2,9.834548950E0,1.609629553E1
8.956311000E0,1.551538559E1,-3.852987671E-1,1.231025070E1,1.980954107E1
8.966280000E0,1.775906982E1,-5.475613403E-1,1.475451782E1,2.309502502E1
8.976248000E0,1.904309967E1,-5.873785400E-1,1.650632492E1,2.520800311E1
8.986216000E0,1.993913635E1,1.998344421E-1,1.783481232E1,2.675237602E1
8.996185000E0,2.025827271E1,1.399439850E0,1.906570267E1,2.785421087E1
9.006153000E0,2.019540344E1,1.853595428E0,2.006607239E1,2.852958810E1
9.016121000E0,1.987686584E1,1.402733002E0,2.055226135E1,2.862608779E1
9.026090000E0,1.937870178E1,7.825726318E-1,2.019315811E1,2.799839526E1
9.036058000E0,1.862322281E1,4.011657715E-1,1.904459656E1,2.663985773E1
9.046026000E0,1.764321075E1,3.049159241E-1,1.762060776E1,2.493715455E1
9.055995000E0,1.672876236E1,4.159849548E-1,1.657892395E1,2.355600248E1
9.065963000E0,1.558424240E1,7.316784668E-1,1.633837418E1,2.259084849E1
9.075932000E0,1.380818573E1,7.430548096E-1,1.672397232E1,2.170044640E1
9.085900000E0,1.179936310E1,4.745132446E-2,1.684132828E1,2.056350066E1
9.095868000E0,1.017104919E1,-2.565664673E-1,1.617656067E1,1.911013300E1
9.105837000E0,8.437055054E0,-1.182540894E-2,1.412881897E1,1.645623175E1
9.115805000E0,6.731202393E0,4.417314148E-1,1.124102417E1,1.310972298E1
9.125773000E0,5.499264221E0,9.455836487E-1,8.562494202E0,1.022019287E1
9.135742000E0,4.244273987E0,1.429377594E0,6.214327240E0,7.659950720E0
9.145710000E0,2.893183594E0,1.630708923E0,3.888164520E0,5.113467144E0
9.155678000E0,1.648072815E0,1.562450867E0,2.189347229E0,3.154463188E0
9.165647000E0,7.045848083E-1,1.380279694E0,9.583071899E-1,1.822076962E0
9.175615000E0,-4.790039063E-2,9.160949707E-1,1.089733887E-1,9.237963207E-1
9.185583000E0,-7.943980408E-1,3.026705933E-1,-3.939807129E-1,9.369623991E-1
9.195552000E0,-1.657802582E0,-1.788780212E-1,-7.655081177E-1,1.834750508E0
9.205520000E0,-2.316732330E0,-3.591032410E-1,-1.543889465E0,2.807097880E0
9.215488000E0,-2.673590240E0,-4.581971741E-1,-2.454595642E0,3.658287740E0
9.225457000E0,-2.717598724E0,-6.074368286E-1,-3.420536957E0,4.410713706E0
9.235425000E0,-2.378404083E0,-5.908213806E-1,-4.261787567E0,4.916168137E0
9.245393000E0,-1.757195892E0,-2.257305908E-1,-4.511468353E0,4.846858612E0
9.255362000E0,-1.212179260E0,-4.340972900E-3,-4.202959900E0,4.374273577E0
9.265330000E0,-6.143225098E-1,7.738906860E-2,-3.733536072E0,3.784530726E0
9.275298000E0,-1.095721436E-1,6.032455444E-2,-2.691253510E0,2.694158599E0
9.285267000E0,2.616558838E-1,8.352630615E-2,-1.551074524E0,1.575205582E0
9.295235000E0,6.183641052E-1,2.415975952E-1,-5.043013000E-1,8.337046035E-1
9.305203000E0,7.791297913E-1,2.481838989E-1,5.132826233E-1,9.654519826E-1
9.315172000E0,7.444020081E-1,7.723937988E-2,1.370250549E0,1.561309335E0
9.325140000E0,6.710545349E-1,3.248245239E-2,2.119143219E0,2.223091829E0
9.335108000E0,5.969586182E-1,1.260379028E-1,2.893333282E0,2.956961722E0
9.345077000E0,6.445596313E-1,3.050656128E-1,3.681893463E0,3.750314869E0
9.355045000E0,9.042695618E-1,4.442761230E-1,4.409530334E0,4.523167307E0
9.365013000E0,9.604028320E-1,5.556445312E-1,5.286406860E0,5.401593463E0
9.374982000E0,9.400451660E-1,7.584727478E-1,6.055507507E0,6.174798539E0
9.384950000E0,1.506916351E0,1.242865448E0,6.186934204E0,6.487963183E0
9.394919000E0,2.521356812E0,1.814526672E0,6.095474396E0,6.841385483E0
9.404887000E0,3.511847076E0,2.130519562E0,6.437812500E0,7.636596970E0
9.414855458E0,4.769082642E0,2.528841248E0,6.516548767E0,8.461949842E0
9.424824458E0,6.449787598E0,2.697839813E0,6.368656311E0,9.457160405E0
9.434792458E0,8.418343964E0,2.642604675E0,6.981481934E0,1.125135390E1
9.444760458E0,1.121138580E1,2.584675140E0,8.099656677E0,1.407054212E1
9.454729458E0,1.407597885E1,2.655178528E0,9.180259552E0,1.701353341E1
9.464697458E0,1.645393387E1,2.334096222E0,1.049153275E1,1.965330009E1
9.474665458E0,1.797941162E1,1.488354950E0,1.266710861E1,2.204382188E1
9.484634458E0,1.837159607E1,9.517208862E-1,1.521256531E1,2.387139414E1
9.494602458E0,1.836560852E1,1.238674164E0,1.727452744E1,2.524359697E1
9.504570458E0,1.819152054E1,1.151555328E0,1.848985016E1,2.596405319E1
9.514539458E0,1.808015213E1,4.788542175E-1,1.855676102E1,2.591282659E1
9.524507458E0,1.843266907E1,7.439529419E-2,1.804557404E1,2.579557260E1
9.534475458E0,1.880599274E1,-3.320095825E-1,1.783945267E1,2.592338066E1
9.544444458E0,1.865331024E1,-1.228495331E0,1.802611450E1,2.596913529E1
9.554412458E0,1.857322678E1,-2.108066254E0,1.825199478E1,2.612554324E1
9.564380458E0,1.778526535E1,-3.221001892E0,1.835827377E1,2.576270042E1
9.574349458E0,1.644465317E1,-3.830983429E0,1.817565353E1,2.480841456E1
9.584317458E0,1.539758057E1,-3.765120392E0,1.754217087E1,2.364295619E1
9.594285458E0,1.379516281E1,-3.161575470E0,1.671693695E1,2.190338005E1
9.604254458E0,1.219753510E1,-2.274669800E0,1.563543594E1,1.996048201E1
9.614222458E0,1.047207321E1,-1.378633118E0,1.436772217E1,1.783245319E1
9.624190458E0,8.968000946E0,-4.834945679E-1,1.265573227E1,1.551858135E1
9.634159458E0,7.672145691E0,2.481838989E-1,1.065604065E1,1.313295919E1
9.644127458E0,6.470594330E0,7.671546936E-1,8.976233826E0,1.109188401E1
9.654096458E0,5.406307526E0,1.016685791E0,7.189998322E0,9.053059534E0
9.664064458E0,4.346810760E0,9.241781616E-1,5.136718140E0,6.792256054E0
9.674032458E0,3.055895233E0,5.099894714E-1,3.184627533E0,4.443021209E0
9.684001458E0,1.661993866E0,1.064286804E-1,1.447639618E0,2.206628908E0
9.693969458E0,4.888833618E-1,-1.047821045E-1,-1.451980591E-2,5.001970168E-1
9.703937458E0,-4.369413757E-1,-1.773811340E-1,-1.206191711E0,1.295098559E0
9.713906458E0,-9.645941162E-1,3.891906738E-3,-2.014660492E0,2.233677204E0
9.723874458E0,-1.024768982E0,2.628533936E-1,-2.489473114E0,2.704943578E0
9.733842458E0,-9.641450500E-1,5.224136353E-1,-2.806813202E0,3.013418662E0
9.743811458E0,-8.777746582E-1,7.300318909E-1,-3.049757996E0,3.256448793E0
9.753779458E0,-4.522096252E-1,9.105564880E-1,-3.074007568E0,3.237766081E0
9.763747458E0,-2.686912537E-1,9.812095642E-1,-2.801125031E0,2.980145741E0
9.773716458E0,1.242416382E-2,1.022972717E0,-2.155218201E0,2.385705982E0
9.783684458E0,4.936734009E-1,1.093326416E0,-1.090332642E0,1.621080303E0
9.793652458E0,8.867559814E-1,1.131646729E0,5.478607178E-2,1.438736252E0
9.803621458E0,1.109642487E0,1.053808594E0,8.590635681E-1,1.754938522E0
9.813589458E0,1.301094360E0,1.169517975E0,1.560055847E0,2.344012175E0
9.823557458E0,1.214125214E0,1.185834045E0,2.328408051E0,2.881282087E0
9.833526458E0,1.227597198E0,1.109941864E0,2.861000519E0,3.305191340E0
9.843494458E0,1.346599731E0,1.248254242E0,3.355272675E0,3.824829958E0
9.853462458E0,1.170865173E0,1.353485413E0,3.672163696E0,4.085050089E0
9.863431458E0,1.074465637E0,1.418600006E0,3.557801514E0,3.978046505E0
9.873399458E0,1.235081635E0,1.549727325E0,3.648213501E0,4.151691604E0
9.883368458E0,1.313967590E0,1.769620056E0,3.611539764E0,4.230991071E0
9.893336458E0,1.604064331E0,2.071991272E0,3.363954620E0,4.264077966E0
9.903304458E0,2.237696686E0,2.276765442E0,3.785178680E0,4.951618420E0
9.913273458E0,2.995720367E0,2.115850067E0,4.550986176E0,5.844881282E0
9.923241458E0,4.052971802E0,1.613195343E0,5.340444489E0,6.895602002E0
9.933209458E0,5.314398651E0,8.955876160E-1,6.365512848E0,8.340543389E0
9.943178458E0,6.900500336E0,4.706213379E-1,7.350764008E0,1.009317199E1
9.953146458E0,8.935668182E0,-2.176473999E-1,8.738378448E0,1.250011177E1
9.963114458E0,1.127111160E1,-1.228195953E0,1.065499283E1,1.555876905E1
9.973083458E0,1.383303406E1,-1.617087250E0,1.263297958E1,1.880319057E1
9.983051458E0,1.601564529E1,-1.275796967E0,1.455737778E1,2.168053966E1
9.993019458E0,1.757480301E1,-8.144563293E-1,1.692590240E1,2.441358663E1
1.000298846E1,1.815050583E1,-1.785786438E-1,1.952240295E1,2.665702476E1
1.001295646E1,1.812610657E1,5.734574890E-1,2.139845169E1,2.804956912E1
1.002292446E1,1.755115219E1,1.966909790E-1,2.180171310E1,2.798921801E1
1.003289346E1,1.691332855E1,-9.957293701E-1,2.092603409E1,2.692491527E1
1.004286146E1,1.631816620E1,-2.225272522E0,1.923724594E1,2.532402056E1
1.005282946E1,1.605561218E1,-2.773282928E0,1.766506531E1,2.403181876E1
1.006279846E1,1.569501205E1,-2.823129272E0,1.613479752E1,2.268557148E1
1.007276646E1,1.515628235E1,-2.550546112E0,1.519460266E1,2.161236059E1
1.008273546E1,1.455857529E1,-2.071841583E0,1.506826538E1,2.105462570E1
1.009270346E1,1.378573242E1,-1.575024719E0,1.516601212E1,2.055565724E1
1.010267146E1,1.262429764E1,-1.459315338E0,1.516062332E1,1.978249205E1
1.011264046E1,1.063209045E1,-1.605710907E0,1.455573120E1,1.809665620E1
1.012260846E1,8.330326996E0,-1.869312744E0,1.344938187E1,1.593030290E1
1.013257646E1,6.311475220E0,-1.973645782E0,1.235201385E1,1.401079025E1
1.014254546E1,4.499193878E0,-2.009720764E0,1.079210770E1,1.186386580E1
1.015251346E1,3.213966522E0,-2.009122009E0,9.165739746E0,9.918514866E0
1.016248146E1,2.545007629E0,-1.675316162E0,8.042625275E0,8.600440069E0
1.017245046E1,2.357297974E0,-1.021775208E0,7.095095673E0,7.545943342E0
1.018241846E1,2.541115723E0,-1.718426514E-1,6.154002686E0,6.660221323E0
1.019238646E1,2.661914520E0,5.662724304E-1,5.091512146E0,5.773209620E0
1.020235546E1,2.603236542E0,1.216669922E0,3.733835449E0,4.711544689E0
1.021232346E1,2.455344086E0,1.817969513E0,2.545606384E0,3.976661866E0
1.022229146E1,1.972897339E0,1.963916016E0,1.530567169E0,3.176779169E0
1.023226046E1,1.357077942E0,2.069296875E0,5.936654663E-1,2.544816061E0
1.024222846E1,9.897418213E-1,2.071691895E0,-1.833686829E-1,2.303284666E0
1.025219646E1,6.640191650E-1,1.832189941E0,-8.425978088E-1,2.123160969E0
1.026216546E1,4.604425049E-1,1.503174133E0,-1.369053040E0,2.084669278E0
1.027213346E1,3.707789612E-1,1.154698792E0,-1.801952820E0,2.172059001E0
1.028210146E1,3.544628906E-1,7.984396362E-1,-2.212998047E0,2.379182664E0
1.029207046E1,2.368075562E-1,5.292993164E-1,-2.537672882E0,2.603078800E0
1.030203846E1,2.918930054E-2,4.843927002E-1,-2.709515533E0,2.752628331E0
1.031200746E1,-1.272354126E-1,4.429289246E-1,-2.455643463E0,2.498511497E0
1.032197546E1,-4.495152283E-1,1.910028076E-1,-1.610051880E0,1.682502026E0
1.033194346E1,-6.854246521E-1,1.010398865E-1,-5.294490051E-1,8.719703329E-1
1.034191246E1,-7.310797119E-1,1.814227295E-1,3.683839417E-1,8.385096782E-1
1.035188046E1,-7.978408813E-1,1.950444031E-1,1.123563538E0,1.391756952E0
1.036184846E1,-8.890013123E-1,6.631210327E-2,1.669029236E0,1.892189002E0
1.037181746E1,-7.990383911E-1,3.787124634E-2,2.137704620E0,2.282471824E0
1.038178546E1,-5.950126648E-1,1.528321838E-1,2.651136932E0,2.721382880E0
1.039175346E1,-3.091072083E-1,1.805245972E-1,3.205883331E0,3.225805997E0
1.040172246E1,1.014889526E-1,2.582130432E-1,3.892804871E0,3.902679047E0
1.041169046E1,7.909552002E-1,5.191204834E-1,4.754263458E0,4.847485661E0
1.042165846E1,1.898651733E0,1.060245209E0,5.370831299E0,5.794378927E0
1.043162746E1,3.060834961E0,1.318907318E0,6.019432526E0,6.880537414E0
1.044159546E1,4.701872406E0,8.244854736E-1,6.761888580E0,8.277108045E0
1.045156346E1,7.175328827E0,-8.924441528E-1,7.600444794E0,1.049040330E1
1.046153246E1,9.750872955E0,-3.004701691E0,8.653954010E0,1.337903867E1
1.047150046E1,1.234572693E1,-4.433031464E0,1.006042923E1,1.653121223E1
1.048146946E1,1.468925354E1,-4.627926178E0,1.214589249E1,1.961414221E1
1.049143746E1,1.617925507E1,-3.013383636E0,1.359203522E1,2.134460580E1
1.050140546E1,1.700868027E1,-7.285350037E-1,1.460452972E1,2.243029773E1
1.051137446E1,1.796174835E1,-3.592529297E-3,1.662233368E1,2.447297272E1
1.052134246E1,1.932496353E1,-1.145118713E-1,1.899430115E1,2.709706266E1
1.053131046E1,2.035601944E1,-6.539900208E-1,2.026530807E1,2.873113193E1
1.054127946E1,2.045047302E1,-2.019749908E0,1.973032059E1,2.848836231E1
1.055124746E1,1.984662872E1,-3.437751160E0,1.826292206E1,2.718898907E1
1.056121546E1,1.888038803E1,-4.220922546E0,1.736628662E1,2.599756047E1
1.057118446E1,1.774799286E1,-4.481680298E0,1.752196289E1,2.533961113E1
1.058115246E1,1.663341064E1,-4.330943756E0,1.839389969E1,2.517464934E1
1.059112046E1,1.555849594E1,-3.829037476E0,1.912288376E1,2.494820649E1
1.060108946E1,1.470452179E1,-3.024759979E0,1.898831360E1,2.420595355E1
1.061105746E1,1.349144440E1,-2.077080688E0,1.817759949E1,2.273232191E1
1.062102646E1,1.177331726E1,-1.047371979E0,1.683713699E1,2.057175660E1
1.063099446E1,9.811496887E0,-2.174977112E-1,1.429138092E1,1.733656093E1
1.064096246E1,8.162975006E0,3.173400879E-1,1.139744888E1,1.402272109E1
1.065093146E1,6.358178101E0,8.117619324E-1,9.048084412E0,1.108842720E1
1.066089946E1,4.497696991E0,1.195414124E0,7.031777344E0,8.432329794E0
1.067086746E1,2.744692383E0,1.300645294E0,5.364993439E0,6.165076565E0
1.068083646E1,1.194665680E0,1.415606232E0,3.843407593E0,4.266491417E0
1.069080446E1,1.357676697E-1,1.506916351E0,2.561922455E0,2.975344756E0
1.070077246E1,-5.580395508E-1,1.330283661E0,1.278940430E0,1.927887803E0
1.071074146E1,-1.058299255E0,1.068178711E0,-2.290237427E-2,1.503837621E0
1.072070946E1,-1.261426849E0,8.565188599E-1,-1.101259918E0,1.880849718E0
1.073067746E1,-1.054557037E0,8.625064087E-1,-2.183509369E0,2.573659071E0
1.074064646E1,-6.653663635E-1,1.281036072E0,-2.790796509E0,3.142023388E0
1.075061446E1,-1.481918335E-1,1.859433289E0,-2.977458344E0,3.513504114E0
1.076058246E1,2.573149109E-1,2.043550415E0,-2.911894684E0,3.566712760E0
1.077055146E1,4.673281860E-1,2.171983337E0,-2.286195831E0,3.187883095E0
1.078051946E1,5.581892395E-1,2.190694427E0,-1.096469879E0,2.512561143E0
1.079048746E1,3.540138245E-1,1.795516205E0,6.556365967E-2,1.831257170E0
1.080045646E1,1.981878662E-1,1.468296661E0,1.277144165E0,1.956085564E0
1.081042446E1,-2.155517578E-2,1.269659729E0,2.436632996E0,2.747668249E0
1.082039346E1,-4.631369019E-1,8.512797546E-1,3.070415039E0,3.219723827E0
1.083036146E1,-7.909552002E-1,3.638932800E-1,2.967279510E0,3.092373868E0
1.084032946E1,-9.502239990E-1,3.538641357E-1,2.667602692E0,2.853813168E0
1.085029846E1,-1.086740112E0,6.589297485E-1,2.391127625E0,2.707892871E0
1.086026646E1,-8.643026733E-1,9.557624817E-1,2.088606720E0,2.454135095E0
1.087023446E1,-4.526586914E-1,1.325194244E0,2.016456757E0,2.455022918E0
1.088020346E1,2.020797729E-2,1.677411804E0,2.112407227E0,2.697477157E0
1.089017146E1,3.969744873E-1,1.698218536E0,2.778671722E0,3.280632787E0
1.090013946E1,6.704557800E-1,1.215622101E0,3.501817932E0,3.766958571E0
1.091010846E1,1.130000153E0,9.148974609E-1,4.239933014E0,4.482295134E0
1.092007646E1,1.985022125E0,8.681945801E-1,5.153483276E0,5.590390375E0
1.093004446E1,3.625760193E0,9.684860229E-1,5.854176178E0,6.953810529E0
1.094001346E1,5.587131500E0,7.075785828E-1,6.346352692E0,8.484862895E0
1.094998146E1,7.608827362E0,7.125183105E-2,6.596781921E0,1.007059394E1
1.095995046E1,9.954299927E0,-5.174739075E-1,7.445367279E0,1.244143722E1
1.096991846E1,1.338741074E1,-7.030879211E-1,8.824449463E0,1.604954850E1
1.097988646E1,1.716450623E1,-9.892927551E-1,1.093775482E1,2.037727790E1
1.098985546E1,2.022369461E1,-1.337468719E0,1.417836594E1,2.473484803E1
1.099982346E1,2.156535461E1,-1.737586670E0,1.845063171E1,2.843430213E1
1.100979146E1,2.156774963E1,-1.232536926E0,2.287288559E1,3.146197493E1
1.101976046E1,2.160382462E1,-5.373825073E-1,2.646316956E1,3.416596788E1
1.102972846E1,2.203582626E1,-5.574407959E-1,2.755694504E1,3.528843435E1
1.103969646E1,2.142180313E1,-1.462159424E0,2.581277206E1,3.357574662E1
1.104966546E1,1.975486954E1,-2.592608643E0,2.256707153E1,3.010397329E1
1.105963346E1,1.781041306E1,-3.420387268E0,1.941687241E1,2.656924531E1
1.106960146E1,1.642698990E1,-3.388054504E0,1.762300278E1,2.432889511E1
1.107957046E1,1.553724014E1,-2.499502258E0,1.704400681E1,2.319809283E1
1.108953846E1,1.448088684E1,-1.551373901E0,1.638328079E1,2.192064630E1
1.109950746E1,1.287113434E1,-1.178948364E0,1.524654465E1,1.998782485E1
1.110947546E1,1.092817474E1,-1.291065216E0,1.405202866E1,1.784800723E1
1.111944346E1,8.853638763E0,-1.308429108E0,1.289268951E1,1.569459617E1
1.112941246E1,6.721472626E0,-1.164428558E0,1.172945847E1,1.356887188E1
1.113938046E1,5.002597046E0,-9.487271118E-1,1.061906754E1,1.177669969E1
1.114934846E1,3.431015167E0,-7.150630188E-1,9.045090637E0,9.700352820E0
1.115931746E1,1.957180023E0,-4.986131287E-1,6.870861969E0,7.161557993E0
1.116928546E1,7.081773376E-1,-4.478686523E-1,4.858297119E0,4.930025595E0
1.117925346E1,-2.460882568E-1,-1.805245972E-1,3.620670776E0,3.633511446E0
1.118922246E1,-7.783813477E-1,3.257226562E-1,2.666554871E0,2.796871046E0
1.119919046E1,-9.391470337E-1,7.652087402E-1,1.662442932E0,2.057002205E0
1.120915946E1,-1.037642212E0,8.921447754E-1,6.866221619E-1,1.531036790E0
1.121912746E1,-1.148411865E0,9.291178894E-1,-6.990463257E-2,1.478849729E0
1.122909546E1,-1.276844788E0,1.039588165E0,-1.005758514E0,1.929410883E0
1.123906446E1,-1.008452911E0,1.221609650E0,-2.207758942E0,2.717260929E0
1.124903246E1,-5.325924683E-1,1.393751678E0,-3.315156097E0,3.635444736E0
1.125900046E1,-8.981323242E-2,1.351240082E0,-4.001179504E0,4.224139392E0
1.126896946E1,3.129991150E-1,1.289268951E0,-4.133055267E0,4.340775129E0
1.127893746E1,5.671705627E-1,1.231040039E0,-3.788022766E0,4.023214946E0
1.128890546E1,4.837939453E-1,9.967771912E-1,-3.166964264E0,3.355187625E0
1.129887446E1,1.582209778E-1,6.355783081E-1,-1.990111542E0,2.095122338E0
1.130884246E1,-6.361770630E-2,2.544708252E-1,-5.213658142E-1,5.836308128E-1
1.131881046E1,-2.555186462E-1,-1.571731567E-1,8.199948120E-1,8.731464204E-1
1.132877946E1,-2.709365845E-1,-3.610491943E-1,1.938618622E0,1.990478665E0
1.133874746E1,1.911524963E-1,-1.085243225E-1,2.736609192E0,2.745422859E0
1.134871646E1,6.240522766E-1,2.234852600E-1,3.433709564E0,3.497105700E0
1.135868446E1,7.447013855E-1,4.471202087E-1,3.841461639E0,3.938441844E0
1.136865246E1,7.355703735E-1,3.888912964E-1,4.121828613E0,4.204969837E0
1.137862146E1,6.728507996E-1,2.258802795E-1,4.233197021E0,4.292284604E0
1.138858946E1,9.400451660E-1,3.068618774E-1,4.330345001E0,4.441816853E0
1.139855746E1,1.138831787E0,4.719685364E-1,4.979245605E0,5.129578827E0
1.140852646E1,1.581910400E0,2.505789185E-1,5.674549713E0,5.896248363E0
1.141849438E1,2.233355713E0,2.345622253E-1,6.305936737E0,6.693858029E0
1.142846237E1,3.181334381E0,6.126759338E-1,6.536756744E0,7.295577358E0
1.143843138E1,4.542004852E0,9.807604980E-1,6.667434998E0,8.126892929E0
1.144839938E1,6.426286469E0,7.328759766E-1,7.634573822E0,1.000604729E1
1.145836838E1,8.250243530E0,-4.146377563E-2,9.325607300E0,1.245131274E1
1.146833638E1,9.439969482E0,-1.159638519E0,1.075214081E1,1.435501018E1
1.147830437E1,1.003617966E1,-2.245480499E0,1.126302841E1,1.525198000E1
1.148827338E1,1.001462448E1,-2.731220398E0,1.159937897E1,1.556591985E1
1.149824138E1,9.663155365E0,-2.310595093E0,1.217104019E1,1.571144935E1
1.150820938E1,9.355994110E0,-1.169218597E0,1.410097687E1,1.696287849E1
1.151817838E1,9.907297668E0,-2.252815247E-1,1.769664963E1,2.028242360E1
1.152814637E1,1.176628189E1,2.032772827E-1,2.183763840E1,2.480663544E1
1.153811438E1,1.475481720E1,9.807604980E-1,2.556982727E1,2.953781624E1
1.154808338E1,1.686887100E1,1.187779999E0,2.680386108E1,3.169253223E1
1.155805138E1,1.659613815E1,9.520202637E-2,2.539918213E1,3.034072046E1
1.156802038E1,1.538036636E1,-9.608518982E-1,2.377266449E1,2.833052211E1
1.157798838E1,1.476275070E1,-1.477277985E0,2.372760818E1,2.798429111E1
1.158795637E1,1.396760422E1,-1.445843353E0,2.377071854E1,2.760854017E1
1.159792538E1,1.329280746E1,-5.813909912E-1,2.377131729E1,2.724173767E1
1.160789338E1,1.173604477E1,5.807922363E-2,2.236738678E1,2.525941629E1
1.161786138E1,9.715696106E0,2.706372070E-1,1.883622986E1,2.119602676E1
1.162783038E1,8.284971313E0,7.372169495E-1,1.534578827E1,1.745501235E1
1.163779837E1,6.864724731E0,1.264869690E0,1.192076065E1,1.381408251E1
1.164776638E1,5.563330994E0,1.830543365E0,9.135352936E0,1.085155353E1
1.165773538E1,4.231400757E0,2.035167847E0,7.032525787E0,8.455949354E0
1.166770338E1,3.088976440E0,1.960922241E0,5.287454681E0,6.429943117E0
1.167767238E1,2.279459839E0,1.970352631E0,4.145030365E0,5.124402733E0
1.168764037E1,1.879192200E0,1.914668427E0,3.502117310E0,4.411592021E0
1.169760838E1,1.387913818E0,1.660047913E0,2.793640594E0,3.533623015E0
1.170757738E1,6.321354675E-1,1.261127472E0,1.622326355E0,2.149879195E0
1.171754538E1,-3.156935120E-1,8.315208435E-1,5.713618469E-1,1.057139379E0
1.172751338E1,-1.012793884E0,5.953120422E-1,1.182540894E-2,1.174856468E0
1.173748237E1,-1.127455444E0,6.270460510E-1,-6.144721985E-1,1.428957176E0
1.174745038E1,-9.704319763E-1,7.988887024E-1,-1.116827545E0,1.681447336E0
1.175741838E1,-5.361849976E-1,9.264234924E-1,-1.170416107E0,1.586073360E0
1.176738738E1,-2.273771667E-1,8.910969543E-1,-1.191073151E0,1.504795471E0
1.177735538E1,1.451980591E-2,8.301736450E-1,-1.409918060E0,1.636235937E0
1.178732438E1,2.721340942E-1,9.967771912E-1,-1.349443817E0,1.699594172E0
1.179729238E1,2.261796570E-1,1.007554779E0,-1.253044281E0,1.623712980E0
1.180726038E1,9.580078125E-2,8.295748901E-1,-1.107696533E0,1.387214438E0
1.181722938E1,6.855743408E-2,6.577322388E-1,-4.141886902E-1,7.802974374E-1
1.182719738E1,4.415817261E-2,5.602848816E-1,3.453318787E-1,6.596386884E-1
1.183716538E1,-1.113684082E-1,4.870870972E-1,6.101312256E-1,7.886170649E-1
1.184713437E1,-1.803749084E-1,4.429289246E-1,8.794212341E-1,1.001050871E0
1.185710238E1,-3.269201660E-1,3.582051086E-1,1.071920929E0,1.176521216E0
1.186707038E1,-6.884184265E-1,2.427951050E-1,1.090781708E0,1.312506810E0
1.187703938E1,-8.300239563E-1,2.659968567E-1,1.136736145E0,1.432432602E0
1.188700738E1,-6.012995911E-1,4.680766296E-1,1.329086151E0,1.532033592E0
1.189697637E1,-1.610650635E-1,7.250921631E-1,1.825903015E0,1.971198219E0
1.190694438E1,4.805007935E-1,9.858499146E-1,2.156565399E0,2.419412199E0
1.191691238E1,1.332828369E0,1.228046265E0,2.674188995E0,3.230451342E0
1.192688138E1,2.343975677E0,1.127455444E0,3.728296967E0,4.545940610E0
1.193684938E1,3.626508636E0,1.081950073E0,5.132975922E0,6.377273921E0
1.194681737E1,4.900659027E0,9.413923645E-1,6.839127960E0,8.466188619E0
1.195678638E1,5.781577148E0,7.020401001E-2,8.671617279E0,1.042250014E1
1.196675438E1,6.401587830E0,-1.278790741E0,1.060454773E1,1.245279346E1
1.197672238E1,7.388186188E0,-2.475102997E0,1.308054886E1,1.522537975E1
1.198669138E1,9.045839081E0,-2.867886200E0,1.588227264E1,1.850131239E1
1.199665937E1,1.104597977E1,-2.149829407E0,1.778975601E1,2.105019844E1
1.200662838E1,1.347961899E1,-6.616241455E-1,1.996892441E1,2.410178036E1
1.201659638E1,1.679552353E1,1.368304596E0,2.334066284E1,2.878799072E1
1.202656438E1,1.966819977E1,2.922522583E0,2.653337357E1,3.315718826E1
1.203653338E1,2.127959885E1,3.296894073E0,2.769495804E1,3.508135599E1
1.204650137E1,2.136656799E1,2.298320618E0,2.737492355E1,3.480228362E1
1.205646938E1,1.980187180E1,7.342231750E-1,2.615780457E1,3.281591001E1
1.206643838E1,1.746133896E1,-2.022294617E-1,2.396202072E1,2.964991892E1
1.207640638E1,1.439765991E1,-5.830375671E-1,2.148302582E1,2.586799068E1
1.208637538E1,1.110914841E1,-9.855505371E-1,1.877051651E1,2.183384479E1
1.209634338E1,8.133935394E0,-1.498982849E0,1.601190308E1,1.802190042E1
1.210631137E1,6.102509766E0,-1.527124329E0,1.401565430E1,1.536265926E1
1.211628038E1,4.934788055E0,-1.029708710E0,1.281320480E1,1.376919208E1
1.212624838E1,4.288282471E0,-2.706372070E-1,1.198722244E1,1.273405328E1
1.213621638E1,3.837120667E0,4.481680298E-1,1.110405899E1,1.175689056E1
1.214618538E1,3.403322754E0,1.056502991E0,1.025637177E1,1.085780669E1
1.215615337E1,2.947819977E0,1.413360901E0,9.539512482E0,1.008412267E1
1.216612138E1,2.439327393E0,1.600471802E0,9.038204956E0,9.497419489E0
1.217609038E1,1.848506012E0,1.516496429E0,8.425978088E0,8.758643881E0
1.218605838E1,1.110091553E0,1.187181244E0,7.589816895E0,7.761895584E0
1.219602738E1,2.182461548E-1,6.715036011E-1,6.354735260E0,6.393841466E0
1.220599537E1,-6.948550415E-1,2.275268555E-2,4.900509338E0,4.949579072E0
1.221596338E1,-1.467697906E0,-4.493655396E-1,3.254831543E0,3.598610135E0
1.222593238E1,-1.883682861E0,-6.327342224E-1,1.573527832E0,2.534680168E0
1.223590038E1,-2.041754150E0,-7.023394775E-1,1.323248291E-1,2.163226898E0
1.224586838E1,-2.099833374E0,-6.902146912E-1,-1.063538361E0,2.452918744E0
1.225583737E1,-2.024839325E0,-3.182382202E-1,-2.068398743E0,2.911962090E0
1.226580538E1,-1.671873322E0,3.423381042E-1,-2.836900635E0,3.310643592E0
1.227577438E1,-1.131347351E0,7.927514648E-1,-3.290906525E0,3.569098971E0
1.228574238E1,-7.002438354E-1,9.972262573E-1,-3.189267883E0,3.414122328E0
1.229571038E1,-2.070195007E-1,1.359323273E0,-2.374961243E0,2.744277271E0
1.230567938E1,2.639012146E-1,1.539548492E0,-1.408870239E0,2.103513433E0
1.231564737E1,4.611909485E-1,1.292412415E0,-6.551875305E-1,1.520624096E0
1.232561538E1,4.754113770E-1,9.050180054E-1,4.520599365E-2,1.023287423E0
1.233558438E1,2.662962341E-1,6.060896301E-1,8.635542297E-1,1.088110395E0
1.234555238E1,5.837860107E-3,2.912942505E-1,1.445693665E0,1.474759842E0
1.235552138E1,-1.218466187E-1,1.380130005E-1,1.957928467E0,1.966565043E0
1.236548937E1,-3.335064697E-1,1.486408997E-1,2.254012756E0,2.283395320E0
1.237545738E1,-5.459147644E-1,1.329235840E-1,2.477048950E0,2.539973053E0
1.238542638E1,-7.518864441E-1,1.600172424E-1,3.149600372E0,3.242055096E0
1.239539438E1,-5.149291992E-1,8.981323242E-2,3.992647247E0,4.026717092E0
1.240536238E1,2.380050659E-1,2.439926147E-2,5.312153320E0,5.317538400E0
1.241533183E1,1.017134857E0,-6.810836792E-2,6.693630524E0,6.770811743E0
1.242529983E1,1.782792664E0,-2.312690735E-1,7.602839813E0,7.812490531E0
1.243526783E1,2.885998535E0,-4.168830872E-1,7.712112579E0,8.244965706E0
1.244523683E1,4.209396515E0,-4.890330505E-1,7.587122498E0,8.690373993E0
1.245520483E1,6.048023071E0,-5.152285767E-1,8.528963928E0,1.046839382E1
1.246517383E1,8.555608521E0,-5.170248413E-1,1.046234344E1,1.352502799E1
1.247514183E1,1.122620499E1,-5.706134033E-1,1.255888367E1,1.685463844E1
1.248510983E1,1.396191605E1,-3.372486877E-1,1.459584778E1,2.020117840E1
1.249507883E1,1.611339203E1,3.360511780E-1,1.655781784E1,2.310661517E1
1.250504683E1,1.737915985E1,8.584648132E-1,1.917796921E1,2.589530193E1
1.251501483E1,1.801204376E1,1.132844238E0,2.228850082E1,2.867916187E1
1.252498383E1,1.818762863E1,1.421743469E0,2.447275864E1,3.052420523E1
1.253495183E1,1.793091248E1,1.083147583E0,2.473995300E1,3.057378134E1
1.254492083E1,1.734009109E1,4.266128540E-2,2.346131195E1,2.917385366E1
1.255488883E1,1.651141434E1,-1.246008911E0,2.190679459E1,2.746064440E1
1.256485683E1,1.566417618E1,-2.013462982E0,2.124008102E1,2.646812216E1
1.257482583E1,1.497351242E1,-2.034718781E0,2.084101089E1,2.574284153E1
1.258479383E1,1.459659622E1,-1.568288727E0,2.014286270E1,2.492498884E1
1.259476183E1,1.458731552E1,-6.012995911E-1,1.940340042E1,2.428257159E1
1.260473083E1,1.419558014E1,5.602848816E-1,1.827384933E1,2.314653288E1
1.261469883E1,1.339070389E1,1.469643860E0,1.625469818E1,2.111127700E1
1.262466783E1,1.162752045E1,2.171683960E0,1.331960175E1,1.781368108E1
1.263463583E1,9.022936707E0,2.142644348E0,1.080348404E1,1.423796260E1
1.264460383E1,5.927823029E0,1.138233032E0,8.931776276E0,1.078013394E1
1.265457283E1,2.840044098E0,-2.158511353E-1,7.785759430E0,8.290385521E0
1.266454083E1,3.884422302E-1,-1.044677582E0,7.475604401E0,7.558233906E0
1.267450883E1,-1.385219421E0,-1.356778564E0,7.027436371E0,7.290030375E0
1.268447783E1,-2.272723846E0,-1.491498413E0,5.905968475E0,6.501561722E0
1.269444583E1,-2.834355927E0,-1.611997833E0,4.211791534E0,5.326471483E0
1.270441483E1,-3.232976990E0,-1.676064606E0,2.106868744E0,4.207163971E0
1.271438283E1,-3.400029602E0,-1.584305420E0,-1.890568542E-1,3.755791189E0
1.272435083E1,-3.261268158E0,-1.275198212E0,-2.093396759E0,4.079743922E0
1.273431983E1,-2.460433502E0,-7.843688965E-1,-3.548520813E0,4.388731883E0
1.274428783E1,-1.374292145E0,-4.460723877E-2,-4.473746796E0,4.680286220E0
1.275425583E1,-4.201762390E-1,6.568341064E-1,-4.892276459E0,4.954023422E0
1.276422483E1,5.486091614E-1,1.231938171E0,-4.595144348E0,4.788945108E0
1.277419283E1,1.387165375E0,1.605261841E0,-3.465293884E0,4.063170567E0
1.278416183E1,1.728455658E0,1.590442657E0,-2.106569366E0,3.155107178E0
1.279412983E1,1.863624573E0,1.428629150E0,-9.464817810E-1,2.531779129E0
1.280409783E1,1.795665894E0,1.192570038E0,-3.508703613E-1,2.183975574E0
1.281406683E1,1.390757904E0,8.005352783E-1,-2.034269714E-1,1.617543450E0
1.282403483E1,8.753796387E-1,4.216731262E-1,-1.574725342E-1,9.843248123E-1
1.283400283E1,3.800596619E-1,2.351609802E-1,6.825805664E-2,4.521119281E-1
1.284397183E1,3.451821899E-1,4.463717651E-1,6.001020813E-1,8.237238645E-1
1.285393983E1,2.258802795E-1,5.614823914E-1,1.206491089E0,1.349779658E0
1.286390883E1,-1.218466187E-1,4.445755005E-1,1.388811951E0,1.463315622E0
1.287387683E1,-3.162922668E-1,5.454656982E-1,1.351090393E0,1.490979167E0
1.288384483E1,-4.893324280E-1,5.822891235E-1,1.574725342E0,1.748790082E0
1.289381383E1,-4.989125061E-1,4.992118835E-1,1.985770569E0,2.107465527E0
1.290378183E1,-8.846603394E-2,6.005511475E-1,2.380050659E0,2.456242875E0
1.291374983E1,5.574407959E-1,8.382568359E-1,3.148702240E0,3.305713321E0
1.292371883E1,1.369801483E0,9.175918579E-1,4.520749054E0,4.812016514E0
1.293368683E1,2.202370148E0,7.920030212E-1,6.325396271E0,6.744504506E0
1.294365583E1,3.678750000E0,8.399034119E-1,8.379574585E0,9.189989637E0
1.295362383E1,5.767356720E0,9.325607300E-1,1.084315155E1,1.231689931E1
1.296359183E1,8.340954895E0,7.156617737E-1,1.340881622E1,1.580759478E1
1.297356083E1,1.111962662E1,7.488926697E-1,1.493115051E1,1.863185960E1
1.298352883E1,1.403002441E1,1.237476654E0,1.548589691E1,2.093289126E1
1.299349783E1,1.666080368E1,1.598376160E0,1.602283035E1,2.317041817E1
1.300346583E1,1.884206772E1,1.240171051E0,1.766237091E1,2.585577085E1
1.301343383E1,1.997820511E1,7.063810730E-1,2.005978546E1,2.832000435E1
1.302340283E1,2.021860519E1,6.054908752E-1,2.210977249E1,2.996665905E1
1.303337083E1,2.031725006E1,4.620890808E-1,2.364033966E1,3.117482695E1
1.304333883E1,2.019615189E1,-6.077362061E-2,2.444386871E1,3.170790063E1
1.305330783E1,1.971984238E1,-3.805087280E-1,2.447590210E1,3.143384726E1
1.306327583E1,1.891242142E1,-5.040019226E-1,2.400288574E1,3.056259521E1
1.307324483E1,1.743993347E1,-9.852511597E-1,2.267215302E1,2.862077081E1
1.308321283E1,1.509910126E1,-1.897903290E0,2.074955109E1,2.573186285E1
1.309318083E1,1.248329086E1,-2.642754364E0,1.856050323E1,2.252352063E1
1.310314983E1,1.011401779E1,-2.656376038E0,1.655512344E1,1.958115936E1
1.311311783E1,8.262518005E0,-2.285896454E0,1.467593124E1,1.699639621E1
1.312308583E1,6.709497528E0,-1.547931061E0,1.274210266E1,1.448359858E1
1.313305483E1,5.062472534E0,-9.407936096E-1,1.066547104E1,1.184339450E1
1.314302283E1,3.777843933E0,-3.638932800E-1,9.072333984E0,9.834214103E0
1.315299183E1,2.955903168E0,2.264790344E-1,8.234975281E0,8.752341068E0
1.316295983E1,2.195933533E0,6.646179199E-1,7.447462921E0,7.792852175E0
1.317292783E1,1.294957123E0,8.228388977E-1,6.543792114E0,6.721249366E0
1.318289683E1,5.367837524E-1,7.804769897E-1,5.667963409E0,5.746572051E0
1.319286483E1,-1.538800049E-1,5.593867493E-1,4.777465210E0,4.812563394E0
1.320283283E1,-7.508386230E-1,2.609074402E-1,3.654650116E0,3.740093421E0
1.321280183E1,-1.140478363E0,8.936416626E-2,2.426154785E0,2.682331801E0
1.322276983E1,-1.789378967E0,-8.876541138E-2,8.728349304E-1,1.992886651E0
1.323273883E1,-2.013912048E0,-2.080673218E-1,-6.506968689E-1,2.126626475E0
1.324270683E1,-1.574425964E0,8.232879639E-2,-2.057321777E0,2.591942909E0
1.325267483E1,-1.021625519E0,6.551875305E-1,-3.055895233E0,3.288082280E0
1.326264383E1,-2.489323425E-1,1.213676147E0,-3.550915833E0,3.760848355E0
1.327261183E1,7.911048889E-1,1.699715424E0,-3.357967072E0,3.845883815E0
1.328258083E1,1.541195068E0,1.911375275E0,-2.669698334E0,3.627109989E0
1.329254883E1,1.746567993E0,1.782792664E0,-1.791773987E0,3.072344944E0
1.330251683E1,1.626817017E0,1.415157166E0,-8.951385498E-1,2.334625544E0
1.331248583E1,1.463955688E0,1.060993652E0,3.415896606E-1,1.839988392E0
1.332245383E1,1.168320465E0,6.839277649E-1,1.615290985E0,2.107580334E0
1.333242183E1,5.962101746E-1,1.628613281E-1,2.360890503E0,2.440449621E0
1.334239083E1,3.577560425E-2,-2.073188782E-1,2.667453003E0,2.675736634E0
1.335235883E1,-7.125183105E-2,-2.875520325E-1,2.674787750E0,2.691143345E0
1.336232783E1,-4.430786133E-2,-2.044747925E-1,2.553539886E0,2.562096618E0
1.337229583E1,-1.856140137E-2,-1.390608215E-1,2.559228058E0,2.563070559E0
1.338226383E1,7.394622803E-2,1.091230774E-1,2.543211365E0,2.546625205E0
1.339223283E1,3.820056152E-1,6.306385803E-1,2.349214783E0,2.462202958E0
1.340220083E1,7.677534485E-1,1.045426025E0,2.540067902E0,2.852070454E0
1.341216883E1,1.242416382E0,1.205742645E0,3.265160065E0,3.695765691E0
1.342213688E1,1.904489594E0,1.343456268E0,4.205055542E0,4.807748690E0
1.343210487E1,2.767894135E0,1.527274017E0,5.266947327E0,6.142844456E0
1.344207388E1,3.853137360E0,1.601519623E0,6.148613892E0,7.430813240E0
1.345204188E1,5.334906006E0,1.438059540E0,7.076983337E0,8.978470387E0
1.346200988E1,6.796466675E0,9.861492920E-1,8.875792694E0,1.122248393E1
1.347197888E1,8.422385559E0,1.513352966E-1,1.099433716E1,1.385044874E1
1.348194687E1,9.902058563E0,-1.175655212E0,1.223914856E1,1.578701005E1
1.349191588E1,1.130539032E1,-2.459834747E0,1.250394791E1,1.703559070E1
1.350188388E1,1.271201523E1,-2.854264526E0,1.214259933E1,1.780968489E1
1.351185188E1,1.432536026E1,-1.711690521E0,1.181118851E1,1.864537489E1
1.352182088E1,1.565220108E1,4.388873291E-1,1.269420227E1,2.015754926E1
1.353178887E1,1.731449432E1,2.639760590E0,1.704011490E1,2.443615284E1
1.354175688E1,1.881377655E1,3.591032410E0,2.258653107E1,2.961427169E1
1.355172588E1,2.000320313E1,3.084635468E0,2.678080902E1,3.356865864E1
1.356169388E1,2.001832169E1,9.153465271E-1,2.795137482E1,3.439259247E1
1.357166288E1,1.824735443E1,-1.407523041E0,2.544274155E1,3.134134908E1
1.358163087E1,1.580653015E1,-2.214944000E0,2.125445114E1,2.658014420E1
1.359159888E1,1.362466736E1,-1.911375275E0,1.804168213E1,2.268892263E1
1.360156788E1,1.231204697E1,-1.650467834E0,1.579230972E1,2.009247598E1
1.361153588E1,1.160671371E1,-1.328038330E0,1.476230164E1,1.882564843E1
1.362150488E1,1.153201904E1,-7.360194397E-1,1.441023376E1,1.847116740E1
1.363147288E1,1.139415573E1,2.315684509E-1,1.352497467E1,1.768630398E1
1.364144087E1,1.066816544E1,1.119072876E0,1.205937241E1,1.613971935E1
1.365140988E1,9.267079010E0,1.761387177E0,1.052581146E1,1.413414112E1
1.366137788E1,7.441026306E0,1.833836517E0,9.128018188E0,1.191857982E1
1.367134588E1,5.462291107E0,1.294508057E0,7.993826752E0,9.767990652E0
1.368131488E1,3.454815674E0,4.104464722E-1,7.052733765E0,7.864176448E0
1.369128287E1,1.634900208E0,-5.613327026E-1,6.349346466E0,6.580440231E0
1.370125188E1,4.640350342E-2,-1.337917786E0,5.798491974E0,5.951023984E0
1.371121988E1,-1.178349609E0,-1.812431030E0,4.940326538E0,5.392609790E0
1.372118788E1,-1.829944611E0,-1.910028076E0,3.586990814E0,4.456838300E0
1.373115688E1,-2.002984772E0,-1.675465851E0,1.991907806E0,3.284331062E0
1.374112487E1,-1.789378967E0,-1.296603699E0,4.701722717E-1,2.259230003E0
1.375109388E1,-1.433568878E0,-7.957452393E-1,-1.015937347E0,1.928849115E0
1.376106188E1,-1.055904236E0,-1.773811340E-1,-2.160756683E0,2.411486526E0
1.377102988E1,-5.382806396E-1,4.710704041E-1,-2.984643402E0,3.069161060E0
1.378099888E1,-8.906478882E-2,1.022224274E0,-3.354075165E0,3.507519809E0
1.379096687E1,2.941383362E-1,1.303489380E0,-3.117417297E0,3.391738865E0
1.380093488E1,8.990304565E-1,1.296154633E0,-2.199226685E0,2.706449815E0
1.381090388E1,1.158141632E0,9.599537659E-1,-1.443747711E0,2.084996577E0
1.382087188E1,1.021176453E0,5.183720398E-1,-7.767347717E-1,1.383773039E0
1.383084088E1,7.096742249E-1,1.305285645E-1,-1.002914429E-2,7.216479719E-1
1.384080888E1,5.201683044E-1,5.987548828E-4,7.265890503E-1,8.935922288E-1
1.385077687E1,7.631130981E-1,1.667532349E-1,1.448687439E0,1.645856475E0
1.386074588E1,9.372010803E-1,6.360273743E-1,1.887425079E0,2.201192885E0
1.387071388E1,1.189875641E0,1.192570038E0,1.907633057E0,2.545013009E0
1.388068288E1,1.549278259E0,1.814975739E0,1.722019043E0,2.942745256E0
1.389065088E1,1.860032043E0,2.342329102E0,1.777403870E0,3.479280003E0
1.390061887E1,2.207459564E0,2.653681641E0,2.103425903E0,4.042190558E0
1.391058788E1,2.886297913E0,2.763852539E0,2.808160400E0,4.884195055E0
1.392055588E1,3.469485168E0,2.411185913E0,4.073628845E0,5.869037128E0
1.393052388E1,3.993844757E0,2.098785553E0,5.406157837E0,7.041465707E0
1.394049288E1,4.714745636E0,1.832189941E0,6.581962738E0,8.301083055E0
1.395046087E1,5.757177887E0,1.245709534E0,7.979905701E0,9.918456758E0
1.396042988E1,7.602839813E0,5.504054260E-1,9.236692200E0,1.197591759E1
1.397039788E1,1.007749374E1,-4.511618042E-1,1.054407349E1,1.459235803E1
1.398036588E1,1.255588989E1,-1.764231262E0,1.164727936E1,1.721691027E1
1.399033488E1,1.520238647E1,-2.993475037E0,1.171628586E1,1.942536490E1
1.400030287E1,1.762180527E1,-3.485801239E0,1.111244156E1,2.112262267E1
1.401027187E1,1.890823013E1,-2.630629578E0,1.109926895E1,2.208246250E1
1.402023988E1,1.824645630E1,-1.343605957E0,1.201326828E1,2.188737214E1
1.403020788E1,1.745220795E1,-7.309300232E-1,1.585458023E1,2.358986086E1
1.404017688E1,1.764500702E1,-1.335223389E0,2.138632690E1,2.775795512E1
1.405014488E1,1.787283325E1,-2.393672333E0,2.504516830E1,3.086143696E1
1.406011387E1,1.743963409E1,-3.400628357E0,2.593791183E1,3.144010784E1
1.407008188E1,1.594214813E1,-4.041894836E0,2.479893036E1,2.975694789E1
1.408004988E1,1.375639343E1,-3.736978912E0,2.314951035E1,2.718645253E1
1.409001888E1,1.213646210E1,-2.848576355E0,2.177521820E1,2.509119820E1
1.409998688E1,1.140568176E1,-1.911974030E0,2.025453049E1,2.332361950E1
1.410995487E1,1.082324295E1,-1.119072876E0,1.811338303E1,2.113029949E1
1.411992388E1,9.723629608E0,-2.788700867E-1,1.564157318E1,1.841970556E1
1.412989188E1,8.446784821E0,8.852590942E-1,1.329011307E1,1.577209443E1
1.413986088E1,6.759343872E0,1.343007202E0,1.137544464E1,1.330011800E1
1.414982888E1,5.100792847E0,1.409019928E0,9.893376617E0,1.121972931E1
1.415979687E1,3.435356140E0,1.294208679E0,8.625812531E0,9.374502106E0
1.416976588E1,1.785337372E0,1.043180695E0,7.392826538E0,7.676557804E0
1.417973388E1,4.089495850E-1,8.041278076E-1,5.794600067E0,5.864405446E0
1.418970288E1,-5.363346863E-1,6.068380737E-1,4.143383789E0,4.221793051E0
1.419967088E1,-1.164727936E0,6.634204102E-1,2.401755524E0,2.750481303E0
1.420963887E1,-1.462907867E0,8.774752808E-1,4.252656555E-1,1.758099307E0
1.421960788E1,-1.804946594E0,9.857002258E-1,-1.525178375E0,2.560391810E0
1.422957588E1,-1.822160797E0,1.093476105E0,-2.994672546E0,3.672059861E0
1.423954488E1,-1.501826935E0,1.380279694E0,-3.796704712E0,4.309944645E0
1.424951288E1,-1.090332642E0,1.832189941E0,-3.837270355E0,4.389805124E0
1.425948088E1,-8.095166016E-1,2.048041077E0,-3.184477844E0,3.871781053E0
1.426944987E1,-4.011657715E-1,2.079924774E0,-2.053878937E0,2.950498217E0
1.427941788E1,1.580712891E-1,2.036065979E0,-6.976991272E-1,2.158086021E0
1.428938688E1,3.981719971E-1,1.974094849E0,3.255729675E-1,2.039997345E0
1.429935488E1,2.803669739E-1,1.704355774E0,9.868977356E-1,1.989321840E0
1.430932288E1,1.695973206E-1,1.344204712E0,1.548529816E0,2.057569962E0
1.431929187E1,2.261796570E-1,1.082249451E0,2.132016449E0,2.401648444E0
1.432925988E1,2.245330811E-1,8.521778870E-1,2.531685333E0,2.680681421E0
1.433922788E1,2.993774414E-1,5.977070618E-1,2.839145966E0,2.916784256E0
1.434919688E1,4.406835938E-1,4.391867065E-1,3.098556519E0,3.160401793E0
1.435916488E1,7.485932922E-1,5.200186157E-1,3.400778046E0,3.520809934E0
1.436913387E1,1.052910461E0,7.685018921E-1,3.884422302E0,4.097310364E0
1.437910188E1,1.355880432E0,8.586145020E-1,4.051325226E0,4.357621679E0
1.438906988E1,2.200274506E0,7.891589355E-1,4.504133606E0,5.074563948E0
1.439903888E1,3.256478119E0,6.764433289E-1,5.925428009E0,6.795066034E0
1.440900688E1,4.638703766E0,5.364843750E-1,7.861801300E0,9.144031266E0
1.441897633E1,6.666536865E0,5.141807556E-1,9.859397278E0,1.191280027E1
1.442894433E1,8.576115875E0,3.978726196E-1,1.157902130E1,1.441463841E1
1.443891233E1,1.047895889E1,3.867956543E-1,1.257624756E1,1.637437611E1
1.444888133E1,1.235650452E1,2.185455322E-1,1.328562241E1,1.814493672E1
1.445884933E1,1.415501450E1,-1.498384094E-1,1.376178223E1,1.974268313E1
1.446881833E1,1.602342911E1,-3.453318787E-1,1.403945480E1,2.130670847E1
1.447878633E1,1.716420685E1,-4.936734009E-1,1.414244064E1,2.224550151E1
1.448875433E1,1.702320007E1,-9.520202637E-1,1.356898315E1,2.179020393E1
1.449872333E1,1.619796616E1,-1.459015961E0,1.279793655E1,2.069516889E1
1.450869133E1,1.521271500E1,-1.665885773E0,1.304088135E1,2.010637857E1
1.451866033E1,1.491797791E1,-1.745370483E0,1.468700821E1,2.100715576E1
1.452862833E1,1.515268982E1,-2.029779053E0,1.686827225E1,2.276538206E1
1.453859633E1,1.579754883E1,-2.296524353E0,1.847877319E1,2.441928811E1
1.454856533E1,1.628882721E1,-2.112556915E0,1.909968201E1,2.519100318E1
1.455853333E1,1.605890533E1,-1.716181183E0,1.883548141E1,2.481147070E1
1.456850233E1,1.530372574E1,-1.089733887E0,1.804811874E1,2.368810106E1
1.457847033E1,1.387749161E1,-6.809339905E-1,1.737422012E1,2.224661703E1
1.458843833E1,1.185370010E1,-7.776329041E-1,1.652698196E1,2.035328111E1
1.459840733E1,9.614506531E0,-1.094224548E0,1.480361572E1,1.768567504E1
1.460837533E1,7.515122223E0,-1.077609100E0,1.230141907E1,1.445555998E1
1.461834433E1,5.644013214E0,-8.011340332E-1,9.927056580E0,1.144740814E1
1.462831233E1,4.011508026E0,-4.629872131E-1,8.088879089E0,9.040825113E0
1.463828033E1,2.666854248E0,-8.322692871E-2,6.868766327E0,7.368784781E0
1.464824933E1,1.640438690E0,1.169068909E-1,6.251450043E0,6.464157637E0
1.465821733E1,1.366358643E0,5.465135193E-1,5.876180420E0,6.057648826E0
1.466818533E1,1.250499573E0,1.007554779E0,5.439538422E0,5.671639450E0
1.467815433E1,1.207987976E0,1.736239471E0,4.994064789E0,5.423508603E0
1.468812233E1,1.166075134E0,2.583028564E0,4.250560913E0,5.108721548E0
1.469809133E1,1.122964783E0,3.093167725E0,3.240461426E0,4.618368405E0
1.470805933E1,1.021775208E0,3.328628082E0,2.079625397E0,4.055691220E0
1.471802733E1,9.547146606E-1,3.387755127E0,6.251000977E-1,3.574788807E0
1.472799633E1,9.572593689E-1,3.339854736E0,-9.589059448E-1,3.604230260E0
1.473796433E1,1.007405090E0,3.259022827E0,-2.321522369E0,4.126204178E0
1.474793333E1,1.068478088E0,3.114722900E0,-3.113675079E0,4.531899896E0
1.475790133E1,1.163530426E0,2.823578339E0,-3.262016602E0,4.468461703E0
1.476786933E1,1.216220856E0,2.470612335E0,-2.633024597E0,3.809978610E0
1.477783833E1,1.297950897E0,2.007026367E0,-1.370998993E0,2.755443632E0
1.478780633E1,1.175206146E0,1.376986542E0,-3.725752258E-1,1.848246120E0
1.479777533E1,9.626481628E-1,8.581654358E-1,4.595443726E-1,1.369058228E0
1.480774333E1,5.906716919E-1,4.080514526E-1,1.545386353E0,1.704000591E0
1.481771133E1,1.414558411E-1,-1.751358032E-2,2.440075836E0,2.444235375E0
1.482768033E1,-2.577639771E-1,-4.038601685E-1,2.987038422E0,3.025217982E0
1.483764833E1,-4.929249573E-1,-6.173162842E-1,3.303330688E0,3.396475827E0
1.484761733E1,-5.734574890E-1,-7.691006470E-1,3.535198517E0,3.663058538E0
1.485758533E1,-5.912704468E-1,-7.464976501E-1,3.800147552E0,3.917649921E0
1.486755333E1,-3.260220337E-1,-4.550537109E-1,4.164639587E0,4.202093185E0
1.487752233E1,1.639091492E-1,-1.968406677E-1,4.440665588E0,4.448047136E0
1.488749033E1,8.167016602E-1,-6.451583862E-2,4.859494629E0,4.928067770E0
1.489745933E1,1.504820709E0,-6.900650024E-2,5.655539246E0,5.852723419E0
1.490742733E1,2.514022064E0,-1.574725342E-1,6.646927643E0,7.108217190E0
1.491739533E1,3.686084747E0,-3.315605164E-1,7.806117096E0,8.639017146E0
1.492736433E1,5.106331329E0,-4.840933228E-1,8.850644989E0,1.022951038E1
1.493733233E1,6.908882904E0,-6.909631348E-1,1.044497955E1,1.254223628E1
1.494730133E1,9.147926788E0,-7.014413452E-1,1.253044281E1,1.553024731E1
1.495726933E1,1.188962540E1,-3.965254211E-1,1.508503052E1,1.921141770E1
1.496723733E1,1.449106567E1,-2.231858826E-1,1.717243973E1,2.247072501E1
1.497720633E1,1.622984985E1,1.938468933E-1,1.739457779E1,2.379111051E1
1.498717433E1,1.654195084E1,4.285588074E-1,1.636891068E1,2.327576071E1
1.499714333E1,1.618509293E1,1.631607056E-1,1.585562805E1,2.265799628E1
1.500711133E1,1.583556976E1,-2.216889954E-1,1.640154282E1,2.279967154E1
1.501707933E1,1.558499084E1,-4.644841003E-1,1.740221191E1,2.336545879E1
1.502704833E1,1.564471664E1,-7.439529419E-1,1.845721802E1,2.420701390E1
1.503701633E1,1.632520157E1,-8.903485107E-1,1.929517548E1,2.529048682E1
1.504698533E1,1.684297485E1,-7.467970276E-1,1.958093124E1,2.583904751E1
1.505695333E1,1.659973068E1,-5.507048035E-1,1.900088745E1,2.523664119E1
1.506692133E1,1.537407944E1,-5.760021973E-1,1.789633438E1,2.360027291E1
1.507689033E1,1.357003098E1,-9.014254761E-1,1.701302124E1,2.178075298E1
1.508685833E1,1.147169449E1,-1.379680939E0,1.607327545E1,1.979528928E1
1.509682733E1,9.293124847E0,-1.711690521E0,1.473026825E1,1.750065303E1
1.510679533E1,7.173532562E0,-1.785187683E0,1.334924011E1,1.525937994E1
1.511676333E1,5.165458374E0,-1.720971222E0,1.178604080E1,1.298285254E1
1.512673233E1,3.571872253E0,-1.630559235E0,9.955347748E0,1.070167948E1
1.513670033E1,2.524051208E0,-1.211879883E0,8.661887512E0,9.103174316E0
1.514666933E1,1.884131927E0,-7.978408813E-1,7.846083984E0,8.108485499E0
1.515663733E1,1.750759277E0,-3.592529297E-1,6.763984222E0,6.996120588E0
1.516660533E1,1.794917450E0,2.149530029E-1,5.536985779E0,5.824615435E0
1.517657433E1,1.726210327E0,9.342073059E-1,4.078269196E0,4.526016462E0
1.518654233E1,1.724264374E0,1.642983398E0,2.319875793E0,3.324801614E0
1.519651133E1,1.747615814E0,2.191592560E0,6.851252747E-1,2.885591036E0
1.520647933E1,1.884131927E0,2.752625885E0,-8.610095215E-1,3.445031172E0
1.521644733E1,1.876348114E0,3.217858429E0,-2.121089172E0,4.286527078E0
1.522641633E1,1.614841919E0,3.359913025E0,-3.096011810E0,4.845824913E0
1.523638433E1,1.280287628E0,3.260519714E0,-3.644022217E0,5.054604152E0
1.524635333E1,1.028361511E0,3.026556244E0,-3.489244080E0,4.732060264E0
1.525632133E1,9.837542725E-1,2.714904327E0,-2.243534546E0,3.656764312E0
1.526628933E1,8.361611938E-1,2.210153961E0,-7.150630188E-1,2.468858278E0
1.527625833E1,5.556445312E-1,1.764231262E0,2.374063110E-1,1.864836333E0
1.528622633E1,4.531077576E-1,1.434616699E0,9.174421692E-1,1.762138430E0
1.529619533E1,2.106120300E-1,1.121916962E0,1.574126587E0,1.944461264E0
1.530616333E1,1.553768921E-1,1.016087036E0,2.062261505E0,2.304234658E0
1.531613133E1,3.321592712E-1,1.059347076E0,2.581980743E0,2.810546312E0
1.532610033E1,5.159770203E-1,1.004561005E0,2.929408264E0,3.139555363E0
1.533606833E1,5.222639465E-1,9.982740784E-1,3.064726868E0,3.265250609E0
1.534603733E1,3.668870544E-1,1.008303223E0,3.021616516E0,3.206469690E0
1.535600533E1,2.838098145E-1,9.702822876E-1,3.112178192E0,3.272254395E0
1.536597333E1,6.210585022E-1,9.702822876E-1,3.444786530E0,3.632315462E0
1.537594233E1,1.238674164E0,8.481362915E-1,4.249962158E0,4.507308199E0
1.538591033E1,1.814227295E0,5.632786560E-1,5.511987762E0,5.830155454E0
1.539587933E1,2.554737396E0,4.960684204E-1,6.549330597E0,7.047446226E0
1.540584733E1,3.648812256E0,3.965254211E-1,7.042105865E0,7.941178647E0
1.541581446E1,4.830305328E0,4.311035156E-2,7.522756348E0,8.940110242E0
1.542578346E1,6.272107086E0,-2.912942505E-1,8.860674133E0,1.085982163E1
1.543575146E1,8.019722900E0,-8.177494812E-1,1.119836288E1,1.379811585E1
1.544572046E1,1.060439804E1,-1.134341125E0,1.408151733E1,1.766434596E1
1.545568846E1,1.389335861E1,-7.261399841E-1,1.626517639E1,2.140347299E1
1.546565646E1,1.663730255E1,1.023870850E-1,1.654838745E1,2.346613403E1
1.547562546E1,1.826082642E1,6.048921204E-1,1.572494980E1,2.410596860E1
1.548559346E1,1.821741669E1,6.441105652E-1,1.462249237E1,2.336892022E1
1.549556246E1,1.717348755E1,5.487588501E-1,1.432895279E1,2.237294569E1
1.550553046E1,1.630634079E1,-5.553451538E-2,1.574366089E1,2.266633389E1
1.551549846E1,1.581835556E1,-1.127006378E0,1.746403336E1,2.358989142E1
1.552546746E1,1.554831711E1,-2.007924500E0,1.859553040E1,2.432232876E1
1.553543546E1,1.580608109E1,-2.397264862E0,1.963526825E1,2.532040358E1
1.554540446E1,1.551059555E1,-2.840193787E0,2.032578232E1,2.572513755E1
1.555537246E1,1.422267380E1,-3.415148163E0,1.972732681E1,2.455840203E1
1.556534046E1,1.233584747E1,-3.431613922E0,1.849598740E1,2.249556971E1
1.557530946E1,1.048734146E1,-3.145708466E0,1.692964462E1,2.016166362E1
1.558527746E1,8.854536896E0,-2.557731171E0,1.453297852E1,1.720907542E1
1.559524646E1,7.306007080E0,-1.786235504E0,1.200578384E1,1.416711765E1
1.560521446E1,5.725294189E0,-1.177002411E0,1.050021469E1,1.201743886E1
1.561518246E1,3.980971527E0,-8.279283142E-1,9.609117737E0,1.043401856E1
1.562515146E1,2.324366455E0,-6.780899048E-1,9.614057465E0,9.914261761E0
1.563511946E1,1.261277161E0,-3.038681030E-1,1.033615585E1,1.041725846E1
1.564508846E1,8.008346558E-1,2.999761963E-1,1.089659042E1,1.093009628E1
1.565505646E1,4.019142151E-1,6.722520447E-1,1.026819717E1,1.029802559E1
1.566502446E1,4.757107544E-1,1.274150391E0,8.666677551E0,8.772745278E0
1.567499346E1,6.747967529E-1,1.759291534E0,6.384373627E0,6.656627071E0
1.568496146E1,9.383985901E-1,2.094294891E0,3.721411285E0,4.372135057E0
1.569493046E1,1.268312531E0,2.591111755E0,8.675958252E-1,3.012507149E0
1.570489846E1,1.512604523E0,2.907104645E0,-2.343526611E0,4.028814570E0
1.571486646E1,1.516496429E0,2.836002502E0,-4.890480194E0,5.853158818E0
1.572483546E1,1.259630585E0,2.446063385E0,-6.167025604E0,6.752932703E0
1.573480346E1,1.138382721E0,2.056573334E0,-6.010750580E0,6.454032199E0
1.574477246E1,1.011296997E0,1.764081573E0,-4.344565430E0,4.796869207E0
1.575474046E1,1.119671631E0,1.334025879E0,-1.862427063E0,2.549887090E0
1.576470846E1,1.496438141E0,1.175804901E0,2.733316040E-1,1.922642567E0
1.577467746E1,2.199526062E0,1.526974640E0,2.629432068E0,3.752796217E0
1.578464546E1,2.995720367E0,2.078128510E0,4.416715393E0,5.727157540E0
1.579461446E1,3.453169098E0,2.542612610E0,4.717889099E0,6.375557486E0
1.580458246E1,3.500919800E0,2.896626434E0,4.251459045E0,6.222683357E0
1.581455046E1,3.449277191E0,3.071911926E0,3.397185516E0,5.733674691E0
1.582451946E1,3.277733917E0,3.083887024E0,2.550845490E0,5.173075634E0
1.583448746E1,2.953957214E0,2.759361877E0,1.933229828E0,4.480772117E0
1.584445646E1,2.455942841E0,2.315684509E0,1.620081024E0,3.744157116E0
1.585442446E1,2.006726990E0,1.769021301E0,1.707648926E0,3.173713035E0
1.586439246E1,1.541344757E0,8.628057861E-1,2.228415985E0,2.843591969E0
1.587436146E1,1.294058990E0,3.861968994E-2,3.374432831E0,3.614260240E0
1.588432946E1,1.281634827E0,-6.352789307E-1,4.578977966E0,4.797208184E0
1.589429846E1,1.862876129E0,-9.377998352E-1,5.510191498E0,5.891687903E0
1.590426646E1,2.910996552E0,-1.176253967E0,6.619534607E0,7.326371048E0
1.591423546E1,4.756808167E0,-1.187330933E0,8.136629791E0,9.499564360E0
1.592420346E1,7.610473938E0,-4.957690430E-1,9.883796539E0,1.248417136E1
1.593417146E1,1.096859070E1,4.162843323E-1,1.104493195E1,1.557157013E1
1.594414046E1,1.409034897E1,9.530680847E-1,1.182466049E1,1.841925266E1
1.595410846E1,1.647189651E1,1.617536316E0,1.270827301E1,2.086719918E1
1.596407746E1,1.775712387E1,2.186203766E0,1.456815536E1,2.307219291E1
1.597404546E1,1.816502563E1,1.649270325E0,1.751911880E1,2.529046802E1
1.598401346E1,1.769335648E1,4.730163574E-1,2.074131821E1,2.726684596E1
1.599398246E1,1.698847229E1,2.710862732E-1,2.391651535E1,2.933737182E1
1.600395046E1,1.660586792E1,7.295828247E-1,2.677556992E1,3.151536585E1
1.601391946E1,1.572914108E1,4.293072510E-1,2.852468262E1,3.257679699E1
1.602388746E1,1.405307648E1,-6.634204102E-1,2.744153503E1,3.083775170E1
1.603385546E1,1.187420746E1,-1.406325531E0,2.339964020E1,2.627770377E1
1.604382446E1,9.819729767E0,-1.294657745E0,1.897109940E1,2.140107109E1
1.605379246E1,8.551716614E0,-5.824388123E-1,1.574560684E1,1.792749918E1
1.606376146E1,7.528743896E0,4.236190796E-2,1.341570190E1,1.538391487E1
1.607372946E1,6.632407837E0,7.527845764E-1,1.177182037E1,1.353260039E1
1.608369746E1,5.898184662E0,1.293310547E0,1.014350647E1,1.180474303E1
1.609366646E1,5.296286316E0,1.674567719E0,8.543483734E0,1.019048282E1
1.610363446E1,4.304448853E0,1.915416870E0,7.216792603E0,8.618537995E0
1.611360346E1,3.023861847E0,1.947300568E0,6.197562103E0,7.165577157E0
1.612357146E1,1.679956512E0,1.754351807E0,5.413791962E0,5.933729649E0
1.613353946E1,3.382965088E-1,1.526824951E0,4.593048706E0,4.851982623E0
1.614350846E1,-7.089257812E-1,1.460512848E0,3.414399719E0,3.780714084E0
1.615347646E1,-1.253643036E0,1.467398529E0,1.925895081E0,2.726527309E0
1.616344546E1,-1.365161133E0,1.637295227E0,3.487747192E-1,2.160102864E0
1.617341346E1,-1.215173035E0,1.788780212E0,-1.254840546E0,2.500200981E0
1.618338146E1,-8.710386658E-1,1.836830292E0,-2.808010712E0,3.466637857E0
1.619335046E1,-3.950285339E-1,1.944007416E0,-4.130360870E0,4.582040298E0
1.620331846E1,1.429527283E-1,2.079026642E0,-4.921016693E0,5.344080141E0
1.621328746E1,5.977070618E-1,2.201022949E0,-5.094805298E0,5.582006519E0
1.622325546E1,7.192543030E-1,2.161654816E0,-4.878505096E0,5.384226060E0
1.623322446E1,8.261320496E-1,2.064057770E0,-4.071682892E0,4.639119551E0
1.624319246E1,9.030720520E-1,2.017205200E0,-2.826422424E0,3.587940868E0
1.625316046E1,8.924441528E-1,1.893412628E0,-1.573677521E0,2.618764763E0
1.626312946E1,7.945477295E-1,1.637145538E0,-2.375559998E-1,1.835206926E0
1.627309746E1,5.441184998E-1,1.392254791E0,1.318458252E0,1.993181002E0
1.628306646E1,5.060975647E-1,1.233135681E0,2.595602417E0,2.917860562E0
1.629303446E1,6.956034851E-1,1.186732178E0,3.658841400E0,3.908876803E0
1.630300246E1,9.559121704E-1,1.318757629E0,4.477788391E0,4.764816748E0
1.631297146E1,9.759704590E-1,1.244661713E0,4.940027161E0,5.187057881E0
1.632293946E1,9.174421692E-1,1.076112213E0,4.770579529E0,4.975755889E0
1.633290846E1,1.235381012E0,1.309626617E0,4.281546478E0,4.644666658E0
1.634287646E1,1.634750519E0,1.888921967E0,3.861070862E0,4.598728482E0
1.635284446E1,2.227966919E0,2.235601044E0,4.285887451E0,5.322647824E0
1.636281346E1,2.799927521E0,2.270029449E0,5.460494843E0,6.542906980E0
1.637278146E1,3.648961945E0,2.592758331E0,6.894812164E0,8.220447300E0
1.638275046E1,4.886288910E0,3.071911926E0,8.409512329E0,1.019962547E1
1.639271846E1,6.206693115E0,3.318149872E0,1.044243484E1,1.259275996E1
1.640268746E1,7.307803345E0,2.903362427E0,1.208062820E1,1.441440533E1
1.641265546E1,8.209079132E0,2.014361115E0,1.247640518E1,1.507008020E1
1.642262438E1,9.443562012E0,1.497186584E0,1.192120972E1,1.528193941E1
1.643259338E1,1.140852585E1,1.823807373E0,1.220337296E1,1.680485188E1
1.644256137E1,1.405367523E1,2.734812927E0,1.366433487E1,1.979138794E1
1.645253038E1,1.761791336E1,4.168531494E0,1.597358276E1,2.414379573E1
1.646249838E1,2.125280457E1,5.416636047E0,1.911794403E1,2.909497262E1
1.647246638E1,2.363869308E1,5.961353302E0,2.158391602E1,3.256057393E1
1.648243538E1,2.425062057E1,5.154531097E0,2.298904404E1,3.381061867E1
1.649240337E1,2.302616684E1,3.524570618E0,2.355696304E1,3.312940484E1
1.650237238E1,2.029898804E1,1.697769470E0,2.291464874E1,3.065962269E1
1.651234038E1,1.733215759E1,-4.894821167E-2,2.107736938E1,2.728848810E1
1.652230938E1,1.438733139E1,-1.676064606E0,1.873189682E1,2.367886094E1
1.653227738E1,1.166149979E1,-2.661914520E0,1.663610504E1,2.048990867E1
1.654224537E1,9.962682495E0,-2.845582581E0,1.524130554E1,1.842958972E1
1.655221437E1,9.495354309E0,-2.157912598E0,1.527947617E1,1.811851904E1
1.656218238E1,8.303383026E0,-1.332678680E0,1.496932114E1,1.716982171E1
1.657215138E1,6.454278259E0,-1.131497040E0,1.316886520E1,1.470907897E1
1.658211938E1,4.977000275E0,-1.020727386E0,1.116767670E1,1.226904311E1
1.659208838E1,3.550017700E0,-9.590556335E-1,9.433083801E0,1.012449917E1
1.660205637E1,2.283351746E0,-7.801776123E-1,7.851472778E0,8.213890497E0
1.661202438E1,1.473835144E0,-4.177812195E-1,6.649472351E0,6.823651055E0
1.662199338E1,1.188229065E0,1.279838562E-1,5.809419250E0,5.931072433E0
1.663196138E1,1.267414398E0,8.020321655E-1,5.101690979E0,5.317597737E0
1.664193038E1,1.588945770E0,1.492695923E0,4.074077911E0,4.620714296E0
1.665189837E1,1.731000366E0,2.145189056E0,2.612666931E0,3.797924018E0
1.666186638E1,1.549877014E0,2.410138092E0,9.442364502E-1,3.017029475E0
1.667183538E1,1.179696808E0,2.567460938E0,-8.173004150E-1,2.941346663E0
1.668180338E1,8.449928284E-1,2.828368378E0,-2.294578400E0,3.738819412E0
1.669177238E1,7.834707642E-1,3.126099243E0,-3.071013794E0,4.451679305E0
